reads,channel1,channel2,channel3,channel4,channel5,channel6,channel7,channel8,mean()Acc_X,mean()Acc_Y,mean()Acc_Z,class,label
1,"0,00001","-0,00002","-0,00001","-0,00003",0,"-0,00001",0,"-0,00001",0.25717778,-0.02328523,-0.014653762,0,1
5,"0,00001","-0,00002","-0,00001","-0,00003",0,"-0,00001",0,"-0,00001",0.28602671,-0.013163359,-0.11908252,0,1
6,"-0,00001","0,00001","0,00002",0,"0,00001","-0,00002","-0,00001","0,00001",0.27548482,-0.02605042,-0.11815167,0,1
7,"-0,00001","0,00001","0,00002",0,"0,00001","-0,00002","-0,00001","0,00001",0.27029822,-0.032613869,-0.11752018,0,1
8,"-0,00001","0,00001","0,00002",0,"0,00001","-0,00002","-0,00001","0,00001",0.27483295,-0.027847788,-0.12952716,0,1
9,"-0,00001","0,00001","0,00002",0,"0,00001","-0,00002","-0,00001","0,00001",0.27921995,-0.018620399,-0.11390197,0,1
10,"-0,00001","0,00001","0,00002",0,"0,00001","-0,00002","-0,00001","0,00001",0.27974586,-0.018271026,-0.10399988,0,1
11,"-0,00001","0,00001","0,00002",0,"0,00001","-0,00002","-0,00001","0,00001",0.27460055,-0.02503513,-0.11683085,0,1
12,"-0,00001","0,00001","0,00002",0,"0,00001","-0,00002","-0,00001","0,00001",0.27252874,-0.020954013,-0.11447249,0,1
13,"-0,00001","0,00001","0,00002",0,"0,00001","-0,00002","-0,00001","0,00001",0.2757457,-0.010371994,-0.09977589,0,1
14,"-0,00001","0,00001","0,00002",0,"0,00001","-0,00002","-0,00001","0,00001",0.27859589,-0.015231928,-0.098908415,0,1
15,"-0,00001","0,00001","0,00002",0,"0,00001","-0,00002","-0,00001","0,00001",0.27915178,-0.021879444,-0.10973077,0,1
16,"-0,00001","0,00001","0,00002",0,"0,00001","-0,00002","-0,00001","0,00001",0.27454383,-0.023145294,-0.1125396,0,1
17,"-0,00001","0,00001","0,00002",0,"0,00001","-0,00002","-0,00001","0,00001",0.26906631,-0.027685967,-0.11017794,0,1
18,"-0,00001","-0,00001","-0,00006","-0,00005","-0,00003","-0,00003","-0,00002","-0,00002",0.27557925,-0.018936424,-0.097409776,0,1
19,"-0,00001","-0,00001","-0,00006","-0,00005","-0,00003","-0,00003","-0,00002","-0,00002",0.28193083,-0.004880615,-0.086106145,0,1
20,"-0,00001","-0,00001","-0,00006","-0,00005","-0,00003","-0,00003","-0,00002","-0,00002",0.31107792,-0.019430625,-0.10186634,0,1
21,"-0,00001","-0,00001","-0,00006","-0,00005","-0,00003","-0,00003","-0,00002","-0,00002",0.26232825,-0.023257054,-0.12552494,0,1
22,"-0,00001","-0,00001","-0,00006","-0,00005","-0,00003","-0,00003","-0,00002","-0,00002",0.28841575,-0.003485395,-0.083827858,0,1
23,"-0,00001","-0,00001","-0,00006","-0,00005","-0,00003","-0,00003","-0,00002","-0,00002",0.27116593,-0.025972908,-0.094923481,0,1
24,"-0,00003","-0,00001","-0,00004","-0,00001","-0,00001","0,00001","-0,00002",0,0.25309467,-0.044192268,-0.13929762,0,1
25,"-0,00003","-0,00001","-0,00004","-0,00001","-0,00001","0,00001","-0,00002",0,0.27133883,-0.029954058,-0.11859533,0,1
26,"-0,00003","-0,00001","-0,00004","-0,00001","-0,00001","0,00001","-0,00002",0,0.29926682,0.011798517,-0.031653276,0,1
27,"-0,00003","-0,00001","-0,00004","-0,00001","-0,00001","0,00001","-0,00002",0,0.29389749,0.01115091,-0.069281198,0,1
28,"-0,00003","-0,00001","-0,00004","-0,00001","-0,00001","0,00001","-0,00002",0,0.27563911,-0.015565524,-0.1254582,0,1
29,"-0,00003","-0,00001","-0,00004","-0,00001","-0,00001","0,00001","-0,00002",0,0.27225459,-0.025051205,-0.13318432,0,1
30,"-0,00003","-0,00001","-0,00004","-0,00001","-0,00001","0,00001","-0,00002",0,0.27642711,-0.026277565,-0.12694133,0,1
31,"-0,00003","-0,00001","-0,00004","-0,00001","-0,00001","0,00001","-0,00002",0,0.28016952,-0.014362437,-0.10047145,0,1
33,"-0,00003","-0,00001","-0,00004","-0,00001","-0,00001","0,00001","-0,00002",0,0.27746102,-0.01584543,-0.10639347,0,1
34,"-0,00003","-0,00001","-0,00004","-0,00001","-0,00001","0,00001","-0,00002",0,0.28837469,-0.0085476599,-0.10705876,0,1
35,"-0,00003","-0,00001","-0,00004","-0,00001","-0,00001","0,00001","-0,00002",0,0.28590496,-0.0077447295,-0.10273652,0,1
45,"-0,00001","-0,00001","-0,00002","0,00004","-0,00001","-0,00001",0,"-0,00001",0.29648714,-0.014684879,-0.13980848,0,1
47,0,"-0,00002","-0,00003","0,00004","-0,00002","-0,00001","-0,00002",0,0.27723542,-0.025677001,-0.11843072,0,1
48,0,"-0,00002","-0,00003","0,00004","-0,00002","-0,00001","-0,00002",0,0.2782907,-0.014536086,-0.10524253,0,1
49,0,"-0,00002","-0,00003","0,00004","-0,00002","-0,00001","-0,00002",0,0.27815992,-0.0076678258,-0.09927102,0,1
50,0,"-0,00002","-0,00003","0,00004","-0,00002","-0,00001","-0,00002",0,0.27664638,-0.0049748937,-0.104754,0,1
51,0,"-0,00002","-0,00003","0,00004","-0,00002","-0,00001","-0,00002",0,0.27829493,-0.022664347,-0.11591945,0,1
52,0,"-0,00002","-0,00003","0,00004","-0,00002","-0,00001","-0,00002",0,0.27505303,-0.024059404,-0.10589705,0,1
53,0,"-0,00002","-0,00003","0,00004","-0,00002","-0,00001","-0,00002",0,0.27486428,-0.01561837,-0.097528302,0,1
54,"-0,00001","0,00003","0,00002","0,00004","-0,00001","-0,00001","0,00001",0,0.27871074,-0.016793927,-0.10524076,0,1
55,"-0,00001","0,00003","0,00002","0,00004","-0,00001","-0,00001","0,00001",0,0.27822455,-0.016181738,-0.1075716,0,1
56,"-0,00001","0,00003","0,00002","0,00004","-0,00001","-0,00001","0,00001",0,0.27625455,-0.016985093,-0.10885324,0,1
57,"-0,00001","0,00003","0,00002","0,00004","-0,00001","-0,00001","0,00001",0,0.27574674,-0.015388072,-0.10505767,0,1
58,"-0,00001","0,00003","0,00002","0,00004","-0,00001","-0,00001","0,00001",0,0.28028279,-0.019175262,-0.10932156,0,1
59,"-0,00001","0,00003","0,00002","0,00004","-0,00001","-0,00001","0,00001",0,0.28540286,0.002355779,-0.16984868,0,1
60,"-0,00001","0,00003","0,00002","0,00004","-0,00001","-0,00001","0,00001",0,0.27047249,-0.0089373643,-0.095150167,0,1
61,"-0,00001","0,00003","0,00002","0,00004","-0,00001","-0,00001","0,00001",0,0.28022445,-0.028037933,-0.12428498,0,1
62,"-0,00001","0,00003","0,00002","0,00004","-0,00001","-0,00001","0,00001",0,0.27724091,-0.01767369,-0.12039377,0,1
63,"-0,00001","-0,00008","-0,00008","-0,00007","-0,00003","-0,00002","0,00002","-0,00002",0.27925474,-0.012044574,-0.11526539,0,1
64,"-0,00001","-0,00008","-0,00008","-0,00007","-0,00003","-0,00002","0,00002","-0,00002",0.27981772,-0.010396061,-0.11320248,0,1
65,"-0,00001","-0,00008","-0,00008","-0,00007","-0,00003","-0,00002","0,00002","-0,00002",0.27579491,-0.034804666,-0.10983325,0,1
66,"-0,00001","-0,00008","-0,00008","-0,00007","-0,00003","-0,00002","0,00002","-0,00002",0.27379132,-0.041945691,-0.10724671,0,1
67,"-0,00001","-0,00008","-0,00008","-0,00007","-0,00003","-0,00002","0,00002","-0,00002",0.27609539,-0.018046144,-0.11243656,0,1
68,"-0,00001","-0,00008","-0,00008","-0,00007","-0,00003","-0,00002","0,00002","-0,00002",0.27767523,-0.012379484,-0.10466656,0,1
69,"-0,00001","-0,00008","-0,00008","-0,00007","-0,00003","-0,00002","0,00002","-0,00002",0.27679437,-0.017846957,-0.099866917,0,1
70,"-0,00001","-0,00008","-0,00008","-0,00007","-0,00003","-0,00002","0,00002","-0,00002",0.17376905,-0.024869125,-0.094733441,0,1
71,"-0,00001","-0,00008","-0,00008","-0,00007","-0,00003","-0,00002","0,00002","-0,00002",0.3009048,-0.023610414,-0.096890735,0,1
72,"-0,00001","-0,00008","-0,00008","-0,00007","-0,00003","-0,00002","0,00002","-0,00002",0.28567994,-0.021402652,-0.099788959,0,1
73,"-0,00001","-0,00008","-0,00008","-0,00007","-0,00003","-0,00002","0,00002","-0,00002",0.27205902,-0.021271356,-0.10063642,0,1
74,"-0,00001","-0,00008","-0,00008","-0,00007","-0,00003","-0,00002","0,00002","-0,00002",0.27631974,-0.017844672,-0.10385552,0,1
75,"-0,00001","-0,00008","-0,00008","-0,00007","-0,00003","-0,00002","0,00002","-0,00002",0.27869543,-0.017640511,-0.10511841,0,1
76,"-0,00001","-0,00008","-0,00008","-0,00007","-0,00003","-0,00002","0,00002","-0,00002",0.28026202,-0.018697516,-0.10968549,0,1
77,"-0,00001","-0,00008","-0,00008","-0,00007","-0,00003","-0,00002","0,00002","-0,00002",0.29238966,-0.014798532,-0.11487816,0,1
78,"-0,00001","-0,00008","-0,00008","-0,00007","-0,00003","-0,00002","0,00002","-0,00002",0.29089459,-0.012652477,-0.11315576,0,1
79,"-0,00001","-0,00008","-0,00008","-0,00007","-0,00003","-0,00002","0,00002","-0,00002",0.27191593,-0.019731212,-0.10278027,0,1
80,"-0,00001","-0,00008","-0,00008","-0,00007","-0,00003","-0,00002","0,00002","-0,00002",0.29301384,-0.01607838,-0.11018298,0,1
81,"-0,00001","-0,00008","-0,00008","-0,00007","-0,00003","-0,00002","0,00002","-0,00002",0.33999093,-0.039323711,-0.11380871,0,1
82,"-0,00001","-0,00008","-0,00008","-0,00007","-0,00003","-0,00002","0,00002","-0,00002",0.32773332,-0.012972104,-0.10934048,0,1
83,"-0,00001","-0,00008","-0,00008","-0,00007","-0,00003","-0,00002","0,00002","-0,00002",0.26238254,-0.020021626,-0.099674861,0,1
84,"-0,00001","-0,00008","-0,00008","-0,00007","-0,00003","-0,00002","0,00002","-0,00002",0.29490692,-0.017273605,-0.10855348,0,1
85,"-0,00001","-0,00008","-0,00008","-0,00007","-0,00003","-0,00002","0,00002","-0,00002",0.2673108,-0.017739291,-0.10418492,0,1
86,"-0,00001","-0,00008","-0,00008","-0,00007","-0,00003","-0,00002","0,00002","-0,00002",0.29493279,-0.018148994,-0.10870259,0,1
89,"-0,00002",0,0,"-0,00005",0,0,"-0,00001","-0,00001",0.2843065,-0.017380345,-0.10824585,0,1
90,"-0,00002",0,0,"-0,00005",0,0,"-0,00001","-0,00001",0.27747775,-0.017918468,-0.10552646,0,1
91,"-0,00002",0,0,"-0,00005",0,0,"-0,00001","-0,00001",0.31454279,-0.015639484,-0.11205392,0,1
92,"-0,00002",0,0,"-0,00005",0,0,"-0,00001","-0,00001",0.27616038,-0.018258159,-0.10492036,0,1
93,"-0,00002",0,0,"-0,00005",0,0,"-0,00001","-0,00001",0.27628845,-0.020230299,-0.099639409,0,1
94,"-0,00002",0,0,"-0,00005",0,0,"-0,00001","-0,00001",0.323685,-0.015714002,-0.11094539,0,1
95,"-0,00002",0,0,"-0,00005",0,0,"-0,00001","-0,00001",0.27524826,-0.016467107,-0.11215011,0,1
96,"-0,00002",0,0,"-0,00005",0,0,"-0,00001","-0,00001",0.20396243,-0.03234452,-0.096881229,0,1
97,"-0,00002",0,0,"-0,00005",0,0,"-0,00001","-0,00001",0.24934321,-0.003410981,-0.056041574,0,1
98,"-0,00002",0,0,"-0,00005",0,0,"-0,00001","-0,00001",0.32505052,-0.029803725,-0.077847175,0,1
99,"-0,00002",0,0,"-0,00005",0,0,"-0,00001","-0,00001",0.30880812,-0.022128064,-0.13210431,0,1
100,"-0,00001","0,00003","0,00004","0,00002",0,"-0,00003","-0,00001",0,0.26559921,-0.015936305,-0.12074953,0,1
101,"-0,00001","-0,00003","-0,00004","-0,00001","-0,00002",0,0,"-0,00001",0.18741915,-0.011533248,-0.10650963,0,1
102,"-0,00001","-0,00003","-0,00004","-0,00001","-0,00002",0,0,"-0,00001",0.28420274,0.013704674,-0.11395407,0,1
103,"-0,00001","-0,00003","-0,00004","-0,00001","-0,00002",0,0,"-0,00001",0.35782982,-0.013519015,-0.13127164,0,1
104,"-0,00001","-0,00003","-0,00004","-0,00001","-0,00002",0,0,"-0,00001",0.31870911,-0.037635508,-0.13241984,0,1
105,"-0,00001","-0,00003","-0,00004","-0,00001","-0,00002",0,0,"-0,00001",0.32008469,-0.010838647,-0.12170815,0,1
106,0,0,"0,00002","-0,00002","-0,00001",0,"-0,00001",0,0.19317016,-0.010586551,-0.088769599,0,1
107,0,0,"0,00002","-0,00002","-0,00001",0,"-0,00001",0,0.19471487,-0.020176701,-0.049544661,0,1
108,0,0,"0,00002","-0,00002","-0,00001",0,"-0,00001",0,0.34969095,-0.030496088,-0.10829783,0,1
109,0,0,"0,00002","-0,00002","-0,00001",0,"-0,00001",0,0.30870458,-0.024987159,-0.1238269,0,1
110,0,0,"0,00002","-0,00002","-0,00001",0,"-0,00001",0,0.21102476,-0.00058166814,-0.096443768,0,1
111,0,0,"0,00002","-0,00002","-0,00001",0,"-0,00001",0,0.29771925,-0.020939986,-0.11438786,0,1
112,0,0,"0,00002","-0,00002","-0,00001",0,"-0,00001",0,0.33314426,-0.043446917,-0.12619938,0,1
113,0,0,"0,00002","-0,00002","-0,00001",0,"-0,00001",0,0.22981714,-0.0026481752,-0.082070626,0,1
114,"-0,00001",0,"-0,00002","-0,00007","-0,00002","-0,00001","-0,00001","-0,00001",0.23748279,0.0021969913,-0.048945315,0,1
115,"-0,00001",0,"-0,00002","-0,00007","-0,00002","-0,00001","-0,00001","-0,00001",0.33150518,-0.036584496,-0.10886677,0,1
116,"-0,00001",0,"-0,00002","-0,00007","-0,00002","-0,00001","-0,00001","-0,00001",0.26663115,-0.043309471,-0.14096216,0,1
117,"-0,00001",0,"-0,00002","-0,00007","-0,00002","-0,00001","-0,00001","-0,00001",0.24042087,0.0010854188,-0.11888144,0,1
118,"-0,00001",0,"-0,00002","-0,00007","-0,00002","-0,00001","-0,00001","-0,00001",0.29112809,0.015567293,-0.10429218,0,1
119,"-0,00001",0,"-0,00002","-0,00007","-0,00002","-0,00001","-0,00001","-0,00001",0.35552927,-0.023789742,-0.12723972,0,1
120,"-0,00001",0,"-0,00002","-0,00007","-0,00002","-0,00001","-0,00001","-0,00001",0.28744253,-0.050273681,-0.13274829,0,1
121,"-0,00001",0,"-0,00002","-0,00007","-0,00002","-0,00001","-0,00001","-0,00001",0.1844141,-0.014817877,-0.089991964,0,1
122,"-0,00003","-0,00007","-0,00005","-0,0001","-0,00002","-0,00001","-0,00001","-0,00001",0.25204831,-0.00060425372,-0.070452518,0,1
123,"0,00001","0,00002","-0,00001","-0,00003","-0,00001","-0,00001","-0,00001","-0,00003",0.33806106,-0.0413713,-0.097384161,0,1
124,"0,00001","0,00002","-0,00001","-0,00003","-0,00001","-0,00001","-0,00001","-0,00003",0.29030031,-0.044250443,-0.12549008,0,1
125,"0,00001","0,00002","-0,00001","-0,00003","-0,00001","-0,00001","-0,00001","-0,00003",0.26086953,-0.015550952,-0.12094838,0,1
126,"0,00001","0,00002","-0,00001","-0,00003","-0,00001","-0,00001","-0,00001","-0,00003",0.39276304,-0.059173884,-0.11092832,0,1
127,"0,00001","0,00002","-0,00001","-0,00003","-0,00001","-0,00001","-0,00001","-0,00003",0.33322745,-0.024943465,-0.15891904,0,1
128,"0,00001","0,00002","-0,00001","-0,00003","-0,00001","-0,00001","-0,00001","-0,00003",0.31615359,0.0012773598,-0.06545266,0,1
129,"0,00001","0,00002","-0,00001","-0,00003","-0,00001","-0,00001","-0,00001","-0,00003",0.15366105,-0.010077719,-0.043894838,0,1
130,"0,00001","0,00002","-0,00001","-0,00003","-0,00001","-0,00001","-0,00001","-0,00003",0.071035289,-0.015656183,-0.094263452,0,1
131,"0,00001","0,00002","-0,00001","-0,00003","-0,00001","-0,00001","-0,00001","-0,00003",0.33304231,-0.01019258,-0.1220055,0,1
132,"0,00001","0,00002","-0,00001","-0,00003","-0,00001","-0,00001","-0,00001","-0,00003",0.27579996,0.0018368697,-0.13628781,0,1
133,"0,00001","0,00002","-0,00001","-0,00003","-0,00001","-0,00001","-0,00001","-0,00003",0.27138623,-0.042483426,-0.12821114,0,1
134,"0,00001","0,00002","-0,00001","-0,00003","-0,00001","-0,00001","-0,00001","-0,00003",0.42604818,-0.058615109,-0.1170689,0,1
135,"0,00001","0,00002","-0,00001","-0,00003","-0,00001","-0,00001","-0,00001","-0,00003",0.2856233,-0.0060363793,-0.19809731,0,1
136,"0,00001","0,00002","-0,00001","-0,00003","-0,00001","-0,00001","-0,00001","-0,00003",0.35480453,-0.018153403,-0.14403353,0,1
139,"-0,00001","0,00001","0,00004",0,"0,00001","-0,00001",0,"-0,00001",0.39558207,-0.012193647,-0.14801867,0,1
140,"-0,00001","0,00001","0,00004",0,"0,00001","-0,00001",0,"-0,00001",0.22715659,-0.022146672,-0.14521449,0,1
141,"-0,00001","0,00001","0,00004",0,"0,00001","-0,00001",0,"-0,00001",0.23483919,0.0081011057,-0.14108314,0,1
142,"-0,00001","0,00001","0,00004",0,"0,00001","-0,00001",0,"-0,00001",0.23820197,-0.0026928807,-0.12149269,0,1
143,"-0,00001","0,00001","0,00004",0,"0,00001","-0,00001",0,"-0,00001",0.27873663,-0.048279124,-0.12092488,0,1
144,"-0,00001","0,00001","0,00004",0,"0,00001","-0,00001",0,"-0,00001",0.26374279,-0.02958616,-0.050708835,0,1
145,"-0,00001","0,00001","0,00004",0,"0,00001","-0,00001",0,"-0,00001",0.30133385,-0.056094277,-0.078006249,0,1
146,"-0,00001","0,00001","0,00004",0,"0,00001","-0,00001",0,"-0,00001",0.28026398,0.0060423653,-0.12786457,0,1
147,"-0,00001","0,00001","0,00004",0,"0,00001","-0,00001",0,"-0,00001",0.24393099,-0.0040036613,-0.12267616,0,1
148,"-0,00001","0,00001","0,00004",0,"0,00001","-0,00001",0,"-0,00001",0.28433754,0.013821312,-0.05753308,0,1
149,"-0,00001","0,00001","0,00004",0,"0,00001","-0,00001",0,"-0,00001",0.41085939,-0.024854391,-0.14898719,0,1
150,"-0,00001","0,00001","0,00004",0,"0,00001","-0,00001",0,"-0,00001",0.17766532,-0.070310559,-0.13630828,0,1
151,"-0,00003","-0,00005","-0,00006","-0,00008","-0,00003","-0,00001","0,00001","-0,00002",0.20574701,-0.00517762,-0.10548391,0,1
153,"-0,00003","-0,00005","-0,00006","-0,00008","-0,00003","-0,00001","0,00001","-0,00002",0.25186651,-0.030378942,-0.3516297,0,1
154,"-0,00003","-0,00005","-0,00006","-0,00008","-0,00003","-0,00001","0,00001","-0,00002",0.20906379,-0.049359552,-0.31450384,0,1
155,"-0,00003","-0,00005","-0,00006","-0,00008","-0,00003","-0,00001","0,00001","-0,00002",0.23655703,-0.0061942794,-0.13948292,0,1
156,"-0,00003","-0,00005","-0,00006","-0,00008","-0,00003","-0,00001","0,00001","-0,00002",0.24274255,0.0099775927,-0.093386183,0,1
157,"-0,00003","-0,00005","-0,00006","-0,00008","-0,00003","-0,00001","0,00001","-0,00002",0.28158555,-0.0075743135,-0.1747021,0,1
158,"-0,00003","-0,00005","-0,00006","-0,00008","-0,00003","-0,00001","0,00001","-0,00002",0.18214828,-0.010646974,-0.16894574,0,1
159,"-0,00003","-0,00005","-0,00006","-0,00008","-0,00003","-0,00001","0,00001","-0,00002",0.1821957,-0.0016884658,-0.089805031,0,1
160,"0,00001",0,"-0,00002","-0,00002","-0,00001","-0,00002","-0,00001",0,0.31178044,0.013873623,-0.21470991,0,1
161,"0,00001",0,"-0,00002","-0,00002","-0,00001","-0,00002","-0,00001",0,0.25615464,0.03261012,-0.22862313,0,1
162,"0,00001",0,"-0,00002","-0,00002","-0,00001","-0,00002","-0,00001",0,0.078156973,-0.027612708,-0.34615379,0,1
163,"0,00001",0,"-0,00002","-0,00002","-0,00001","-0,00002","-0,00001",0,0.17991522,0.040285843,-0.39925032,0,1
164,"0,00001",0,"-0,00002","-0,00002","-0,00001","-0,00002","-0,00001",0,0.28509055,-0.011054655,-0.17546042,0,1
165,"0,00001",0,"-0,00002","-0,00002","-0,00001","-0,00002","-0,00001",0,0.28495022,-0.017809348,-0.10353921,0,1
166,"0,00001",0,"-0,00002","-0,00002","-0,00001","-0,00002","-0,00001",0,0.1982599,-0.0072360841,-0.11697537,0,1
167,"0,00001",0,"-0,00002","-0,00002","-0,00001","-0,00002","-0,00001",0,0.25100692,0.027292221,-0.15904398,0,1
168,"0,00001",0,"-0,00002","-0,00002","-0,00001","-0,00002","-0,00001",0,0.26889811,0.027477206,-0.13197884,0,1
169,"0,00001",0,"-0,00002","-0,00002","-0,00001","-0,00002","-0,00001",0,0.14838783,-0.036547994,-0.11049098,0,1
170,"0,00001",0,"-0,00002","-0,00002","-0,00001","-0,00002","-0,00001",0,0.073728786,-0.14822575,-0.24110951,0,1
171,"0,00001",0,"-0,00002","-0,00002","-0,00001","-0,00002","-0,00001",0,0.28020794,-0.01113497,-0.179611,0,1
172,"0,00001",0,"-0,00002","-0,00002","-0,00001","-0,00002","-0,00001",0,0.27452047,-0.0078204354,-0.12915842,0,1
173,"0,00001",0,"-0,00002","-0,00002","-0,00001","-0,00002","-0,00001",0,0.24402748,-0.0043812777,-0.13437813,0,1
174,0,"-0,00001",0,"0,00001","-0,00001",0,"0,00001",0,0.2858303,-0.0046677341,-0.15274602,0,1
175,0,"-0,00002",0,0,"-0,00001","-0,00001",0,0,0.23646561,-0.036365249,-0.11386168,0,1
176,0,"-0,00002",0,0,"-0,00001","-0,00001",0,0,0.2388571,-0.022813178,-0.023382587,0,1
177,0,"-0,00002",0,0,"-0,00001","-0,00001",0,0,0.29475553,-0.062461304,-0.098216739,0,1
178,0,"-0,00002",0,0,"-0,00001","-0,00001",0,0,0.21881237,-0.055128494,-0.015740984,0,1
179,0,"-0,00002",0,0,"-0,00001","-0,00001",0,0,0.28767511,-0.030786823,-0.17259261,0,1
180,0,"-0,00002",0,0,"-0,00001","-0,00001",0,0,0.28732862,-0.030313825,-0.16753742,0,1
181,0,"-0,00002",0,0,"-0,00001","-0,00001",0,0,0.27273142,-0.028275581,-0.12707511,0,1
182,0,"-0,00002",0,0,"-0,00001","-0,00001",0,0,0.2758409,-0.018403826,-0.10282253,0,1
183,"-0,00002","-0,00001","-0,00002","-0,00001","0,00001","-0,00002","-0,00004","-0,00001",0.27860714,-0.010041872,-0.088410143,0,1
184,"-0,00002","-0,00001","-0,00002","-0,00001","0,00001","-0,00002","-0,00004","-0,00001",0.27627058,-0.0072991585,-0.080292541,0,1
185,"-0,00002","-0,00001","-0,00002","-0,00001","0,00001","-0,00002","-0,00004","-0,00001",0.27848792,-0.012224534,-0.10117153,0,1
186,"-0,00002","-0,00001","-0,00002","-0,00001","0,00001","-0,00002","-0,00004","-0,00001",0.28021898,-0.014917572,-0.1086301,0,1
189,"-0,00002","-0,00001","-0,00002","-0,00001","0,00001","-0,00002","-0,00004","-0,00001",0.27811098,-0.020942513,-0.11285638,0,1
190,"-0,00002","-0,00001","-0,00002","-0,00001","0,00001","-0,00002","-0,00004","-0,00001",0.27143024,-0.026177026,-0.11524626,0,1
191,"-0,00002","-0,00001","-0,00002","-0,00001","0,00001","-0,00002","-0,00004","-0,00001",0.33014802,0.01898283,-0.042531252,0,1
192,"-0,00002","-0,00001","-0,00002","-0,00001","0,00001","-0,00002","-0,00004","-0,00001",0.27746452,-0.022945736,-0.14505044,0,1
193,"-0,00002","-0,00001","-0,00002","-0,00001","0,00001","-0,00002","-0,00004","-0,00001",0.27972876,-0.017344364,-0.11825506,0,1
194,"-0,00002","-0,00001","-0,00002","-0,00001","0,00001","-0,00002","-0,00004","-0,00001",0.27941259,-0.016093153,-0.10220436,0,1
195,"-0,00002","-0,00001","-0,00002","-0,00001","0,00001","-0,00002","-0,00004","-0,00001",0.27740299,-0.017215318,-0.11354467,0,1
196,"-0,00002","-0,00001","-0,00002","-0,00001","0,00001","-0,00002","-0,00004","-0,00001",0.27792121,-0.016941868,-0.11987997,0,1
197,"-0,00002","-0,00001","-0,00002","-0,00001","0,00001","-0,00002","-0,00004","-0,00001",0.27704497,-0.016760148,-0.10919185,0,1
198,"-0,00002","-0,00003","-0,00003","-0,00004","-0,00002","-0,00001","-0,00002",0,0.27295758,-0.022500824,-0.11037456,0,1
199,"-0,00002","-0,00003","-0,00003","-0,00004","-0,00002","-0,00001","-0,00002",0,0.27204575,-0.024955862,-0.11448034,0,1
200,"-0,00002","-0,00003","-0,00003","-0,00004","-0,00002","-0,00001","-0,00002",0,0.28245689,-0.014282925,-0.1134339,0,1
201,"-0,00002","-0,00003","-0,00003","-0,00004","-0,00002","-0,00001","-0,00002",0,0.28722297,-0.010646634,-0.10792908,0,1
202,"-0,00002","-0,00003","-0,00003","-0,00004","-0,00002","-0,00001","-0,00002",0,0.27655316,-0.014799101,-0.099806746,0,1
203,"-0,00002","-0,00003","-0,00003","-0,00004","-0,00002","-0,00001","-0,00002",0,0.23981797,0.082443951,-0.040169582,0,1
204,0,0,"0,00001",0,0,"-0,00001","-0,00002","-0,00001",0.23157481,0.029387192,-0.055042118,0,1
205,0,0,"0,00001",0,0,"-0,00001","-0,00002","-0,00001",0.27074746,-0.0043332488,-0.090021685,0,1
206,0,0,"0,00001",0,0,"-0,00001","-0,00002","-0,00001",0.27160041,-0.01596493,-0.10063981,0,1
207,0,0,"0,00001",0,0,"-0,00001","-0,00002","-0,00001",0.2689962,-0.012391548,-0.096838815,0,1
208,0,0,"0,00001",0,0,"-0,00001","-0,00002","-0,00001",0.27479909,-0.012039553,-0.10255632,0,1
209,0,0,"0,00001",0,0,"-0,00001","-0,00002","-0,00001",0.27879967,-0.015633084,-0.10664773,0,1
210,0,0,"0,00001",0,0,"-0,00001","-0,00002","-0,00001",0.27524573,-0.017001233,-0.10770697,0,1
211,0,0,"0,00001",0,0,"-0,00001","-0,00002","-0,00001",0.27566806,-0.016603733,-0.1049066,0,1
212,0,0,"0,00001",0,0,"-0,00001","-0,00002","-0,00001",0.26569797,-0.016850926,-0.090479419,0,1
213,0,0,"0,00001",0,0,"-0,00001","-0,00002","-0,00001",0.27097605,-0.01515646,-0.096123623,0,1
214,0,0,"0,00001",0,0,"-0,00001","-0,00002","-0,00001",0.41364162,-0.15839475,-0.34597805,0,1
215,0,0,"0,00001",0,0,"-0,00001","-0,00002","-0,00001",0.24841948,-0.019568651,-0.10836772,0,1
216,0,0,"0,00001",0,0,"-0,00001","-0,00002","-0,00001",0.28431213,-0.015594273,-0.085976937,0,1
217,0,0,"0,00001",0,0,"-0,00001","-0,00002","-0,00001",0.26632973,-0.014018832,-0.078509357,0,1
218,0,0,"0,00001",0,0,"-0,00001","-0,00002","-0,00001",0.26902515,-0.013122593,-0.089644011,0,1
219,0,0,"0,00001",0,0,"-0,00001","-0,00002","-0,00001",0.27804665,-0.013597299,-0.11000054,0,1
220,"-0,00003","-0,00001","0,00001","0,00001",0,"-0,00001","-0,00001","-0,00001",0.27542397,-0.0049399286,-0.096703863,0,1
221,"-0,00003","-0,00001","0,00001","0,00001",0,"-0,00001","-0,00001","-0,00001",0.27933873,-0.0073438173,-0.10514613,0,1
222,"-0,00003","-0,00001","0,00001","0,00001",0,"-0,00001","-0,00001","-0,00001",0.2820615,-0.013704805,-0.1175365,0,1
223,"-0,00003","-0,00001","0,00001","0,00001",0,"-0,00001","-0,00001","-0,00001",0.27327371,-0.013628537,-0.096298527,0,1
224,"-0,00003","-0,00001","0,00001","0,00001",0,"-0,00001","-0,00001","-0,00001",0.27540653,-0.019426969,-0.10365438,0,1
225,"-0,00003","-0,00001","0,00001","0,00001",0,"-0,00001","-0,00001","-0,00001",0.28764759,-0.0031577634,-0.15519093,0,1
226,"0,00001","-0,00002","-0,00003","-0,00001","0,00001","-0,00001","-0,00001","-0,00001",0.28981652,-0.023625983,-0.093806191,0,1
227,"0,00001","-0,00002","-0,00003","-0,00001","0,00001","-0,00001","-0,00001","-0,00001",0.23247724,-0.015840013,-0.099607104,0,1
228,"0,00001","-0,00002","-0,00003","-0,00001","0,00001","-0,00001","-0,00001","-0,00001",0.28001074,-0.01504451,-0.1141546,0,1
229,"0,00001","-0,00002","-0,00003","-0,00001","0,00001","-0,00001","-0,00001","-0,00001",0.2889269,-0.016270962,-0.11194758,0,1
230,"0,00001","-0,00002","-0,00003","-0,00001","0,00001","-0,00001","-0,00001","-0,00001",0.27077035,-0.018885449,-0.10409015,0,1
231,"0,00001","-0,00002","-0,00003","-0,00001","0,00001","-0,00001","-0,00001","-0,00001",0.25720873,-0.018170348,-0.10424073,0,1
232,"0,00001","-0,00002","-0,00003","-0,00001","0,00001","-0,00001","-0,00001","-0,00001",0.26881216,-0.017686334,-0.10637874,0,1
233,"0,00001","-0,00002","-0,00003","-0,00001","0,00001","-0,00001","-0,00001","-0,00001",0.28168951,-0.018017943,-0.10599026,0,1
234,"0,00001","-0,00002","-0,00003","-0,00001","0,00001","-0,00001","-0,00001","-0,00001",0.29122454,-0.01583904,-0.1083148,0,1
235,"0,00001","-0,00002","-0,00003","-0,00001","0,00001","-0,00001","-0,00001","-0,00001",0.28651908,-0.016332634,-0.1114194,0,1
236,"0,00001","-0,00002","-0,00003","-0,00001","0,00001","-0,00001","-0,00001","-0,00001",0.25854868,-0.032957509,-0.07983694,0,1
239,"0,00001","-0,00002","-0,00003","-0,00001","0,00001","-0,00001","-0,00001","-0,00001",0.3038402,-0.017496054,-0.10323135,0,1
240,"0,00001","-0,00002","-0,00003","-0,00001","0,00001","-0,00001","-0,00001","-0,00001",0.30362162,-0.017156999,-0.11169795,0,1
241,"0,00001","-0,00002","-0,00003","-0,00001","0,00001","-0,00001","-0,00001","-0,00001",0.28786223,-0.017068863,-0.10900066,0,1
242,"0,00001","-0,00002","-0,00003","-0,00001","0,00001","-0,00001","-0,00001","-0,00001",0.28312886,-0.017412761,-0.10856193,0,1
243,"0,00001","-0,00002","-0,00003","-0,00001","0,00001","-0,00001","-0,00001","-0,00001",0.28062969,-0.018454053,-0.10638058,0,1
244,"0,00001","-0,00002","-0,00003","-0,00001","0,00001","-0,00001","-0,00001","-0,00001",0.27683403,-0.016036583,-0.10727545,0,1
245,"0,00001","-0,00002","-0,00003","-0,00001","0,00001","-0,00001","-0,00001","-0,00001",0.27066724,-0.018234096,-0.11050619,0,1
247,"0,00001","-0,00002","-0,00003","-0,00001","0,00001","-0,00001","-0,00001","-0,00001",0.27326045,-0.016496129,-0.11469471,0,1
248,"0,00001","-0,00002","-0,00003","-0,00001","0,00001","-0,00001","-0,00001","-0,00001",0.27398753,-0.013808599,-0.11041744,0,1
249,"0,00001","-0,00002","-0,00003","-0,00001","0,00001","-0,00001","-0,00001","-0,00001",0.27585859,-0.018573541,-0.10381581,0,1
250,"-0,00003","-0,00007","-0,00005","-0,00003","-0,00004","-0,00001","-0,00001","-0,00002",0.27714817,-0.017613671,-0.10740418,0,1
251,"-0,00003","-0,00007","-0,00005","-0,00003","-0,00004","-0,00001","-0,00001","-0,00002",0.27456229,-0.015755629,-0.11037294,0,1
252,"-0,00002","-0,00002",0,0,"-0,00002","0,00001","-0,00004","-0,00001",0.24860491,-0.086163379,-0.073014829,0,1
253,"-0,00002","-0,00002",0,0,"-0,00002","0,00001","-0,00004","-0,00001",0.21690075,-0.0062597255,-0.077891466,0,1
254,"-0,00002","-0,00002",0,0,"-0,00002","0,00001","-0,00004","-0,00001",0.26222243,-0.015316616,-0.09583238,0,1
256,"-0,00002","-0,00002",0,0,"-0,00002","0,00001","-0,00004","-0,00001",0.29659805,-0.026108897,-0.11375324,0,1
257,0,"0,00003","0,00001","0,00002","-0,00001","-0,00001","-0,00001",0,0.24016527,0.014778169,-0.11018469,0,1
258,0,"0,00003","0,00001","0,00002","-0,00001","-0,00001","-0,00001",0,0.31286994,-0.014139669,-0.11615801,0,1
259,0,"0,00003","0,00001","0,00002","-0,00001","-0,00001","-0,00001",0,0.31649338,-0.042248362,-0.1126406,0,1
260,0,"0,00003","0,00001","0,00002","-0,00001","-0,00001","-0,00001",0,0.20894174,-0.020536706,-0.083943782,0,1
261,0,"0,00003","0,00001","0,00002","-0,00001","-0,00001","-0,00001",0,0.27124829,-0.0060117091,-0.066718752,0,1
263,0,"0,00003","0,00001","0,00002","-0,00001","-0,00001","-0,00001",0,0.35341932,-0.024866761,-0.11141914,0,1
264,"-0,00001","-0,00001","-0,00002","-0,00001","-0,00001","-0,00001","-0,00001","0,00001",0.22839376,-0.021200162,-0.1595219,0,1
265,"-0,00001","-0,00001","-0,00002","-0,00001","-0,00001","-0,00001","-0,00001","0,00001",0.21535112,0.0069834544,-0.1267625,0,1
266,"-0,00001","-0,00001","-0,00002","-0,00001","-0,00001","-0,00001","-0,00001","0,00001",0.32555586,-0.011187423,-0.10089524,0,1
267,"-0,00001","-0,00001","-0,00002","-0,00001","-0,00001","-0,00001","-0,00001","0,00001",0.36545296,-0.01988365,-0.10279395,0,1
268,"-0,00001","-0,00001","-0,00002","-0,00001","-0,00001","-0,00001","-0,00001","0,00001",0.26780915,-0.013846287,-0.11797861,0,1
269,"-0,00001","-0,00001","-0,00002","-0,00001","-0,00001","-0,00001","-0,00001","0,00001",0.34002771,-0.026012234,-0.10422698,0,1
271,"-0,00001","-0,00001","-0,00002","-0,00001","-0,00001","-0,00001","-0,00001","0,00001",0.26426913,-0.011202192,-0.097405036,0,1
272,"-0,00001","-0,00001","-0,00002","-0,00001","-0,00001","-0,00001","-0,00001","0,00001",0.26580166,-0.016486852,-0.076607139,0,1
273,"-0,00001","-0,00001","-0,00002","-0,00001","-0,00001","-0,00001","-0,00001","0,00001",0.25477841,-0.033032031,-0.12829512,0,1
274,"-0,00001","-0,00001","-0,00002","-0,00001","-0,00001","-0,00001","-0,00001","0,00001",0.22294492,0.0096186354,-0.10969656,0,1
275,"-0,00001","-0,00001","-0,00002","-0,00001","-0,00001","-0,00001","-0,00001","0,00001",0.37962251,-0.0066834563,-0.11093909,0,1
276,"-0,00001","-0,00001","-0,00002","-0,00001","-0,00001","-0,00001","-0,00001","0,00001",0.27911103,-0.033291612,-0.10127494,0,1
277,"-0,00001","-0,00001","-0,00002","-0,00001","-0,00001","-0,00001","-0,00001","0,00001",0.26173982,-0.016742272,-0.075360889,0,1
278,"-0,00001","-0,00001","-0,00002","-0,00001","-0,00001","-0,00001","-0,00001","0,00001",0.32915435,-0.034418332,-0.11507647,0,1
279,"-0,00001","-0,00001","-0,00002","-0,00002",0,0,"-0,00002","-0,00001",0.19549619,-0.016377097,-0.126381,0,1
280,"-0,00001",0,"0,00001","0,00001",0,0,"-0,00001",0,0.24387,0.011466552,-0.11389069,0,1
281,"-0,00001",0,"0,00001","0,00001",0,0,"-0,00001",0,0.32955877,-0.029189921,-0.12136232,0,1
282,"-0,00001",0,"0,00001","0,00001",0,0,"-0,00001",0,0.28806864,-0.032201474,-0.11596739,0,1
283,"-0,00001",0,"0,00001","0,00001",0,0,"-0,00001",0,0.24987037,-0.0075291689,-0.093297657,0,1
284,"-0,00001",0,"0,00001","0,00001",0,0,"-0,00001",0,0.31930656,-0.010016849,-0.16410108,0,1
285,"-0,00001",0,"0,00001","0,00001",0,0,"-0,00001",0,0.12592012,-0.027658255,-0.050069386,0,1
287,0,0,0,"0,00002",0,"-0,00001",0,0,0.29997571,-0.01160794,-0.13608717,0,1
290,0,0,0,"0,00002",0,"-0,00001",0,0,0.26012783,-0.020200821,-0.13129646,0,1
291,0,0,0,"0,00002",0,"-0,00001",0,0,0.2871613,-0.010106916,-0.13231092,0,1
292,0,0,0,"0,00002",0,"-0,00001",0,0,0.32958399,0.0067191725,-0.14774302,0,1
293,0,0,0,"0,00002",0,"-0,00001",0,0,0.25184336,-0.052219039,-0.12966482,0,1
294,0,0,0,"0,00002",0,"-0,00001",0,0,0.24829116,-0.060992823,-0.17012592,0,1
295,0,0,0,"0,00002",0,"-0,00001",0,0,0.26160863,-0.073315382,-0.073890189,0,1
296,0,0,0,"0,00002",0,"-0,00001",0,0,0.29960665,-0.014975152,-0.061362489,0,1
297,0,0,0,"0,00002",0,"-0,00001",0,0,0.25953975,0.0055178016,-0.15296364,0,1
298,0,0,0,"0,00002",0,"-0,00001",0,0,0.25308441,-0.03528093,-0.12458994,0,1
299,0,0,0,"0,00002",0,"-0,00001",0,0,0.26156636,-0.020792241,-0.14153329,0,1
300,0,0,0,"0,00002",0,"-0,00001",0,0,0.31001933,-0.055972223,-0.1350257,0,1
301,0,0,0,"0,00002",0,"-0,00001",0,0,0.19842455,-0.027514258,-0.047398754,0,1
303,0,0,0,"-0,00001",0,"-0,00001","-0,00002",0,0.22867274,-0.045504377,-0.11212662,0,1
304,"-0,00003","-0,00004","-0,00003","-0,00003","-0,00004","-0,00002",0,"-0,00002",0.4228405,-0.0098579907,-0.067457385,0,1
305,"-0,00003","-0,00004","-0,00003","-0,00003","-0,00004","-0,00002",0,"-0,00002",0.28711862,-0.020052061,-0.15325673,0,1
306,"-0,00003","-0,00004","-0,00003","-0,00003","-0,00004","-0,00002",0,"-0,00002",0.10222138,-0.04865811,-0.11641174,0,1
307,"-0,00003","-0,00004","-0,00003","-0,00003","-0,00004","-0,00002",0,"-0,00002",0.21485672,-0.0085199829,-0.038548925,0,1
308,"-0,00003","-0,00004","-0,00003","-0,00003","-0,00004","-0,00002",0,"-0,00002",0.46767458,-0.015139256,-0.13220819,0,1
310,"-0,00003","-0,00004","-0,00003","-0,00003","-0,00004","-0,00002",0,"-0,00002",0.30835585,0.015060179,-0.1260511,0,1
311,"-0,00003","-0,00004","-0,00003","-0,00003","-0,00004","-0,00002",0,"-0,00002",0.29417901,-0.034406963,-0.12252018,0,1
312,"-0,00003","-0,00004","-0,00003","-0,00003","-0,00004","-0,00002",0,"-0,00002",0.20731083,-0.19305262,-0.16045556,0,1
313,"-0,00003","-0,00004","-0,00003","-0,00003","-0,00004","-0,00002",0,"-0,00002",0.36261593,-0.072425218,-0.12119007,0,1
314,"-0,00003","-0,00004","-0,00003","-0,00003","-0,00004","-0,00002",0,"-0,00002",0.27816503,0.027962971,-0.080086674,0,1
315,"-0,00003","-0,00004","-0,00003","-0,00003","-0,00004","-0,00002",0,"-0,00002",0.2563942,-0.012968956,-0.11188381,0,1
316,"-0,00003","-0,00004","-0,00003","-0,00003","-0,00004","-0,00002",0,"-0,00002",0.24683451,-0.043831863,-0.14154702,0,1
317,0,"-0,00002","-0,00002",0,"-0,00001","-0,00001","-0,00002","-0,00001",0.29819093,-0.023188147,-0.10758915,0,1
318,0,"-0,00002","-0,00002",0,"-0,00001","-0,00001","-0,00002","-0,00001",0.26963228,-0.037614803,-0.11446394,0,1
319,0,"-0,00002","-0,00002",0,"-0,00001","-0,00001","-0,00002","-0,00001",0.19648111,0.0058967997,-0.12903397,0,1
320,0,"-0,00002","-0,00002",0,"-0,00001","-0,00001","-0,00002","-0,00001",0.19518889,-0.074923063,-0.31908182,0,1
321,0,"-0,00002","-0,00002",0,"-0,00001","-0,00001","-0,00002","-0,00001",0.24200036,-0.051685995,-0.11614944,0,1
322,0,"-0,00002","-0,00002",0,"-0,00001","-0,00001","-0,00002","-0,00001",0.31856167,-0.027020624,-0.081685509,0,1
323,0,"-0,00002","-0,00002",0,"-0,00001","-0,00001","-0,00002","-0,00001",0.28637788,-0.037529434,-0.087672085,0,1
324,"0,00001","0,00002","-0,00003","-0,00001","-0,00001","-0,00001",0,"0,00002",0.26149147,-0.040122792,-0.071103801,0,1
325,"0,00001","0,00002","-0,00003","-0,00001","-0,00001","-0,00001",0,"0,00002",0.25438287,0.0093508548,-0.13722003,0,1
326,"0,00001","0,00002","-0,00003","-0,00001","-0,00001","-0,00001",0,"0,00002",0.22326915,-0.00014139722,-0.15908758,0,1
327,"0,00001","0,00002","-0,00003","-0,00001","-0,00001","-0,00001",0,"0,00002",0.21223054,0.0029777676,-0.10370011,0,1
328,"0,00001","0,00002","-0,00003","-0,00001","-0,00001","-0,00001",0,"0,00002",0.37772556,-0.043437113,-0.33051333,0,1
329,"0,00001","0,00002","-0,00003","-0,00001","-0,00001","-0,00001",0,"0,00002",0.36081239,-0.03391096,-0.13858928,0,1
330,"0,00001","0,00002","-0,00003","-0,00001","-0,00001","-0,00001",0,"0,00002",0.25631314,-0.016422148,-0.058532753,0,1
331,"0,00001","0,00002","-0,00003","-0,00001","-0,00001","-0,00001",0,"0,00002",0.26294232,0.0074128076,-0.091331896,0,1
332,"0,00001","0,00002","-0,00003","-0,00001","-0,00001","-0,00001",0,"0,00002",0.27685853,0.011056542,-0.12722914,0,1
333,"0,00001","0,00002","-0,00003","-0,00001","-0,00001","-0,00001",0,"0,00002",0.24514236,-0.015805672,-0.081850253,0,1
334,"0,00001","0,00002","-0,00003","-0,00001","-0,00001","-0,00001",0,"0,00002",0.19783456,-0.015901763,-0.059524406,0,1
335,"0,00001","0,00002","-0,00003","-0,00001","-0,00001","-0,00001",0,"0,00002",0.19918776,0.036583027,0.31935782,0,1
336,"0,00001","0,00002","-0,00003","-0,00001","-0,00001","-0,00001",0,"0,00002",0.28638505,-0.083568838,-0.1466763,0,1
339,"0,00001","0,00002","-0,00003","-0,00001","-0,00001","-0,00001",0,"0,00002",0.30882643,-0.036619566,-0.19515573,0,1
340,"0,00001","0,00002","-0,00003","-0,00001","-0,00001","-0,00001",0,"0,00002",0.25756859,0.020305323,-0.050276102,0,1
341,0,0,"-0,00001","-0,00003","-0,00002","-0,00001",0,"-0,00001",0.25955873,0.0046596569,-0.057737157,0,1
343,0,0,"-0,00001","-0,00003","-0,00002","-0,00001",0,"-0,00001",0.28314011,-0.021003469,-0.12570109,0,1
344,0,0,"-0,00001","-0,00003","-0,00002","-0,00001",0,"-0,00001",0.26517313,-0.010026893,-0.077670207,0,1
345,0,0,"-0,00001","-0,00003","-0,00002","-0,00001",0,"-0,00001",0.27008378,0.0048569578,-0.083685376,0,1
346,0,0,"-0,00001","-0,00003","-0,00002","-0,00001",0,"-0,00001",0.28273831,-0.017324312,-0.11666218,0,1
347,0,0,"-0,00001","-0,00003","-0,00002","-0,00001",0,"-0,00001",0.28113989,-0.024462626,-0.11935491,0,1
348,0,0,"-0,00001","-0,00003","-0,00002","-0,00001",0,"-0,00001",0.28014898,-0.023329188,-0.11789258,0,1
349,0,0,"-0,00001","-0,00003","-0,00002","-0,00001",0,"-0,00001",0.2817674,-0.025205551,-0.11867533,0,1
350,0,0,"-0,00001","-0,00003","-0,00002","-0,00001",0,"-0,00001",0.2842585,-0.021144586,-0.12213853,0,1
351,0,0,"-0,00001","-0,00003","-0,00002","-0,00001",0,"-0,00001",0.28260885,-0.01808229,-0.12286608,0,1
352,0,0,"-0,00001","-0,00003","-0,00002","-0,00001",0,"-0,00001",0.27944946,-0.018085928,-0.12039583,0,1
353,0,0,"-0,00001","-0,00003","-0,00002","-0,00001",0,"-0,00001",0.26896048,-0.022184652,-0.097454173,0,1
354,0,0,"-0,00001","-0,00003","-0,00002","-0,00001",0,"-0,00001",0.33525867,0.075461569,-0.11818184,0,1
355,0,"0,00004","0,00003","0,00004","0,00001","-0,00003","-0,00001",0,0.27186857,-0.036372612,-0.14550653,0,1
356,0,"0,00004","0,00003","0,00004","0,00001","-0,00003","-0,00001",0,0.28200991,-0.032682629,-0.11706991,0,1
357,0,"0,00004","0,00003","0,00004","0,00001","-0,00003","-0,00001",0,0.27568858,-0.030012935,-0.10448052,0,1
358,0,"0,00004","0,00003","0,00004","0,00001","-0,00003","-0,00001",0,0.26911817,-0.02580678,-0.080175463,0,1
360,0,"0,00004","0,00003","0,00004","0,00001","-0,00003","-0,00001",0,0.2734611,-0.018551272,-0.086201283,0,1
361,0,"0,00004","0,00003","0,00004","0,00001","-0,00003","-0,00001",0,0.27321225,-0.0096402541,-0.10077378,0,1
362,0,"0,00004","0,00003","0,00004","0,00001","-0,00003","-0,00001",0,0.27596953,-0.03030971,-0.12078182,0,1
363,0,"0,00004","0,00003","0,00004","0,00001","-0,00003","-0,00001",0,0.27963328,-0.030560045,-0.11603058,0,1
364,0,"0,00004","0,00003","0,00004","0,00001","-0,00003","-0,00001",0,0.27581383,-0.013010156,-0.095351023,0,1
365,0,"0,00004","0,00003","0,00004","0,00001","-0,00003","-0,00001",0,0.27380433,-0.012208646,-0.097438815,0,1
366,0,"0,00004","0,00003","0,00004","0,00001","-0,00003","-0,00001",0,0.30611912,-0.007766932,-0.23988195,0,1
367,0,"0,00004","0,00003","0,00004","0,00001","-0,00003","-0,00001",0,0.19014289,0.055032093,-0.083097959,0,1
368,0,"0,00004","0,00003","0,00004","0,00001","-0,00003","-0,00001",0,0.28846121,-0.023680076,-0.11782591,0,1
369,0,"0,00004","0,00003","0,00004","0,00001","-0,00003","-0,00001",0,0.28155688,-0.014095673,-0.11981253,0,1
370,0,"0,00004","0,00003","0,00004","0,00001","-0,00003","-0,00001",0,0.27685643,-0.012799337,-0.12062537,0,1
371,0,"0,00004","0,00003","0,00004","0,00001","-0,00003","-0,00001",0,0.2770617,-0.01402073,-0.10862886,0,1
372,0,"0,00004","0,00003","0,00004","0,00001","-0,00003","-0,00001",0,0.27513101,-0.012226581,-0.11489357,0,1
373,0,"0,00004","0,00003","0,00004","0,00001","-0,00003","-0,00001",0,0.27728983,-0.0099312438,-0.13118279,0,1
374,0,"0,00004","0,00003","0,00004","0,00001","-0,00003","-0,00001",0,0.28017578,-0.010445598,-0.13672229,0,1
375,0,"0,00004","0,00003","0,00004","0,00001","-0,00003","-0,00001",0,0.27581403,-0.013128433,-0.11278809,0,1
376,0,"0,00004","0,00003","0,00004","0,00001","-0,00003","-0,00001",0,0.27255474,-0.014617518,-0.10001367,0,1
377,0,"0,00004","0,00003","0,00004","0,00001","-0,00003","-0,00001",0,0.27805019,-0.016252849,-0.11157826,0,1
378,0,"0,00004","0,00003","0,00004","0,00001","-0,00003","-0,00001",0,0.28852873,-0.018765023,-0.11224819,0,1
379,"-0,00003","-0,00005","-0,00003","-0,00005",0,0,"-0,00001","-0,00004",0.28055394,0.028599996,-0.1199178,0,1
380,"-0,00003","-0,00005","-0,00003","-0,00005",0,0,"-0,00001","-0,00004",0.27796689,0.0002353859,-0.11846288,0,1
381,0,0,"0,00001",0,0,"-0,00001","-0,00001","-0,00001",0.27539409,-0.011431425,-0.10301292,0,1
382,0,0,"0,00001",0,0,"-0,00001","-0,00001","-0,00001",0.27175681,-0.0079864375,-0.089787018,0,1
383,0,0,"0,00001",0,0,"-0,00001","-0,00001","-0,00001",0.27410952,-0.005364989,-0.097327377,0,1
384,0,0,"0,00001",0,0,"-0,00001","-0,00001","-0,00001",0.27799739,-0.01328597,-0.10531014,0,1
385,"-0,00002","-0,00001","-0,00003","0,00001","-0,00002",0,0,"-0,00001",0.28118107,-0.012872911,-0.12324029,0,1
386,"-0,00002","-0,00001","-0,00003","0,00001","-0,00002",0,0,"-0,00001",0.28084628,-0.021385093,-0.12184916,0,1
389,"-0,00002","-0,00001","-0,00003","0,00001","-0,00002",0,0,"-0,00001",0.26870402,-0.012186752,-0.080325892,0,1
390,"-0,00002","-0,00001","-0,00003","0,00001","-0,00002",0,0,"-0,00001",0.26830284,0.010543407,-0.077656995,0,1
391,"-0,00002","-0,00001","-0,00003","0,00001","-0,00002",0,0,"-0,00001",0.27751716,-0.0040593567,-0.10567324,0,1
392,"-0,00002","-0,00001","-0,00003","0,00001","-0,00002",0,0,"-0,00001",0.27872577,-0.028978167,-0.11540244,0,1
393,"-0,00002","-0,00001","-0,00003","0,00001","-0,00002",0,0,"-0,00001",0.051028466,0.0065653695,-0.11217226,0,1
394,"-0,00002","-0,00001","-0,00003","0,00001","-0,00002",0,0,"-0,00001",0.30861379,-0.036677174,-0.098717165,0,1
395,"-0,00002","-0,00001","-0,00003","0,00001","-0,00002",0,0,"-0,00001",0.23647975,-0.013171324,-0.10348975,0,1
396,"-0,00002","-0,00001","-0,00003","0,00001","-0,00002",0,0,"-0,00001",0.28035575,-0.015589391,-0.11261838,0,1
397,"-0,00002","-0,00001","-0,00003","0,00001","-0,00002",0,0,"-0,00001",0.27731664,-0.017055974,-0.10852111,0,1
398,"-0,00002","-0,00001","-0,00003","0,00001","-0,00002",0,0,"-0,00001",0.2771087,-0.017248532,-0.10945889,0,1
399,"-0,00002","-0,00001","-0,00003","0,00001","-0,00002",0,0,"-0,00001",0.27732543,-0.018180619,-0.10913779,0,1
400,"-0,00001",0,"-0,00001","-0,00002",0,"-0,00001",0,"-0,00001",0.27748275,-0.017005809,-0.10810812,0,1
401,"-0,00001",0,"-0,00001","-0,00002",0,"-0,00001",0,"-0,00001",0.27506732,-0.015686386,-0.10681963,0,1
402,"-0,00001",0,"-0,00001","-0,00002",0,"-0,00001",0,"-0,00001",0.27642809,-0.01662193,-0.10918132,0,1
403,"-0,00001",0,"-0,00001","-0,00002",0,"-0,00001",0,"-0,00001",0.27806382,-0.018812708,-0.11079742,0,1
404,"-0,00001",0,"-0,00001","-0,00002",0,"-0,00001",0,"-0,00001",0.27674706,-0.017204143,-0.10735884,0,1
405,"-0,00001",0,"-0,00001","-0,00002",0,"-0,00001",0,"-0,00001",0.28585883,-0.014763411,-0.11128499,0,1
406,"-0,00001",0,"-0,00001","-0,00002",0,"-0,00001",0,"-0,00001",0.2733935,-0.017214987,-0.10848624,0,1
407,"-0,00001",0,"-0,00001","-0,00002",0,"-0,00001",0,"-0,00001",0.28029271,-0.015953791,-0.11146182,0,1
408,"-0,00002",0,"-0,00004","-0,00002","-0,00002","-0,00002","-0,00002","-0,00002",0.28978779,-0.014542375,-0.11965153,0,1
409,"-0,00002",0,"-0,00004","-0,00002","-0,00002","-0,00002","-0,00002","-0,00002",0.32779551,-0.015229268,-0.18408658,0,1
410,"-0,00002",0,"-0,00004","-0,00002","-0,00002","-0,00002","-0,00002","-0,00002",0.36526137,0.0084160269,-0.19277943,0,1
411,"-0,00002",0,"-0,00004","-0,00002","-0,00002","-0,00002","-0,00002","-0,00002",0.25596857,-0.0074210551,-0.12355166,0,1
412,"-0,00002",0,"-0,00004","-0,00002","-0,00002","-0,00002","-0,00002","-0,00002",0.27825064,-0.018024047,-0.10670789,0,1
413,"-0,00002",0,"-0,00004","-0,00002","-0,00002","-0,00002","-0,00002","-0,00002",0.28369547,-0.01736667,-0.11311272,0,1
414,"-0,00002",0,"-0,00004","-0,00002","-0,00002","-0,00002","-0,00002","-0,00002",0.27322234,-0.018568274,-0.10705091,0,1
415,"-0,00002",0,"-0,00004","-0,00002","-0,00002","-0,00002","-0,00002","-0,00002",0.274189,-0.016910887,-0.10787557,0,1
416,"-0,00002",0,"-0,00004","-0,00002","-0,00002","-0,00002","-0,00002","-0,00002",0.28222232,-0.016935802,-0.1122772,0,1
417,"-0,00002",0,"-0,00004","-0,00002","-0,00002","-0,00002","-0,00002","-0,00002",0.27869661,-0.016529127,-0.10651644,0,1
418,"-0,00002",0,"-0,00004","-0,00002","-0,00002","-0,00002","-0,00002","-0,00002",0.28055182,-0.015765129,-0.10789218,0,1
419,"-0,00002",0,"-0,00004","-0,00002","-0,00002","-0,00002","-0,00002","-0,00002",0.27475392,-0.019499381,-0.10896832,0,1
420,"-0,00002",0,"-0,00004","-0,00002","-0,00002","-0,00002","-0,00002","-0,00002",0.27684005,-0.017767982,-0.10807413,0,1
421,"-0,00002",0,"-0,00004","-0,00002","-0,00002","-0,00002","-0,00002","-0,00002",0.27710557,-0.015506359,-0.1059817,0,1
422,"-0,00002",0,"-0,00004","-0,00002","-0,00002","-0,00002","-0,00002","-0,00002",0.2924326,-0.017878346,-0.1143253,0,1
423,"-0,00002",0,"-0,00004","-0,00002","-0,00002","-0,00002","-0,00002","-0,00002",0.30915404,0.046080947,-0.098416109,0,1
424,"-0,00002",0,"-0,00004","-0,00002","-0,00002","-0,00002","-0,00002","-0,00002",0.26093585,-0.0093436512,-0.090990058,0,1
425,"-0,00002",0,"-0,00004","-0,00002","-0,00002","-0,00002","-0,00002","-0,00002",0.28996373,-0.018980389,-0.099626201,0,1
426,"-0,00002",0,"-0,00004","-0,00002","-0,00002","-0,00002","-0,00002","-0,00002",0.27368944,-0.033732585,-0.13180751,0,1
427,"-0,00002",0,"-0,00004","-0,00002","-0,00002","-0,00002","-0,00002","-0,00002",0.25883749,-0.0069610662,-0.11768917,0,1
428,"-0,00002",0,"-0,00004","-0,00002","-0,00002","-0,00002","-0,00002","-0,00002",0.34684312,-0.0011256259,-0.10309374,0,1
429,"-0,00002",0,"-0,00004","-0,00002","-0,00002","-0,00002","-0,00002","-0,00002",0.26158945,-0.022160746,-0.095559204,0,1
430,"-0,00002","-0,00004","-0,00002",0,"-0,00001","-0,00001","-0,00002","-0,00001",0.2484134,-0.041231042,-0.10062737,0,1
431,"-0,00002","-0,00004","-0,00002",0,"-0,00001","-0,00001","-0,00002","-0,00001",0.25553983,-0.025850438,-0.15651915,0,1
432,"0,00001","-0,00001","0,00003","0,00001",0,"-0,00001",0,"-0,00001",0.27320412,-0.01203237,-0.13701804,0,1
433,"0,00001","-0,00001","0,00003","0,00001",0,"-0,00001",0,"-0,00001",0.31831507,-0.021271136,-0.096684508,0,1
434,"0,00001","-0,00001","0,00003","0,00001",0,"-0,00001",0,"-0,00001",0.25520113,0.011061827,-0.067991804,0,1
435,"0,00001","-0,00001","0,00003","0,00001",0,"-0,00001",0,"-0,00001",0.28671326,-0.020601225,-0.077380248,0,1
436,"0,00001","-0,00001","0,00003","0,00001",0,"-0,00001",0,"-0,00001",0.26112918,-0.049985729,-0.12533006,0,1
439,"0,00001","-0,00001","0,00003","0,00001",0,"-0,00001",0,"-0,00001",0.25694564,0.0054141258,-0.116558,0,1
440,"0,00001","-0,00001","0,00003","0,00001",0,"-0,00001",0,"-0,00001",0.34234961,0.011521256,-0.086822203,0,1
441,"0,00001","-0,00001","0,00003","0,00001",0,"-0,00001",0,"-0,00001",0.26227824,-0.057349042,-0.14499221,0,1
442,"0,00001","-0,00001","0,00003","0,00001",0,"-0,00001",0,"-0,00001",0.2693487,-0.0025087408,-0.1129306,0,1
443,"0,00001","-0,00001","0,00003","0,00001",0,"-0,00001",0,"-0,00001",0.28833576,0.01508198,-0.12687212,0,1
444,"0,00001","-0,00001","0,00003","0,00001",0,"-0,00001",0,"-0,00001",0.28550945,-0.025785907,-0.098237602,0,1
445,"0,00001","-0,00001","0,00003","0,00001",0,"-0,00001",0,"-0,00001",0.26413773,-0.054654853,-0.11101336,0,1
446,"0,00001","-0,00001","0,00003","0,00001",0,"-0,00001",0,"-0,00001",0.26884884,0.008148501,-0.10847838,0,1
447,"0,00001","-0,00001","0,00003","0,00001",0,"-0,00001",0,"-0,00001",0.31756167,0.0054502873,-0.12174565,0,1
448,"0,00001","-0,00001","0,00003","0,00001",0,"-0,00001",0,"-0,00001",0.27050501,-0.028146555,-0.092759318,0,1
449,"0,00001","-0,00001","0,00003","0,00001",0,"-0,00001",0,"-0,00001",0.24916439,-0.046933272,-0.092092809,0,1
450,"0,00001","-0,00001","0,00003","0,00001",0,"-0,00001",0,"-0,00001",0.27243408,-0.021554906,-0.12924009,0,1
451,"0,00001","-0,00001","0,00003","0,00001",0,"-0,00001",0,"-0,00001",0.32498849,0.0072651168,-0.11657728,0,1
452,"0,00001","-0,00001","0,00003","0,00001",0,"-0,00001",0,"-0,00001",0.24362795,-0.026698627,-0.12937027,0,1
453,"-0,00002","-0,00004",0,0,"-0,00001","-0,00002",0,"-0,00001",0.2604804,-0.015305432,-0.097889565,0,1
454,"-0,00001","-0,00003","-0,00005","-0,00001","-0,00003",0,"-0,00001","-0,00001",0.28402036,-0.015717841,-0.087331821,0,1
455,"-0,00001","-0,00003","-0,00005","-0,00001","-0,00003",0,"-0,00001","-0,00001",0.27672301,0.0104587,-0.10159656,0,1
456,"-0,00001","-0,00003","-0,00005","-0,00001","-0,00003",0,"-0,00001","-0,00001",0.32860731,0.013722763,-0.073780445,0,1
457,"-0,00001","-0,00003","-0,00005","-0,00001","-0,00003",0,"-0,00001","-0,00001",0.22999415,0.013894079,-0.093146151,0,1
458,"-0,00001","-0,00003","-0,00005","-0,00001","-0,00003",0,"-0,00001","-0,00001",0.3416868,-0.034447458,-0.11302177,0,1
459,"-0,00001","-0,00003","-0,00005","-0,00001","-0,00003",0,"-0,00001","-0,00001",0.16422959,0.030590021,-0.016410577,0,1
460,0,"-0,00001","0,00002","0,00001","-0,00001","-0,00001","-0,00002","-0,00001",0.29353396,-0.007301699,-0.10682503,0,1
461,0,"-0,00001","0,00002","0,00001","-0,00001","-0,00001","-0,00002","-0,00001",0.22827325,0.007316065,-0.067012121,0,1
462,0,"-0,00001","0,00002","0,00001","-0,00001","-0,00001","-0,00002","-0,00001",0.30233239,0.031498918,-0.067048605,0,1
463,0,"-0,00001","0,00002","0,00001","-0,00001","-0,00001","-0,00002","-0,00001",0.3172964,-0.022770336,-0.089612042,0,1
464,0,"-0,00001","0,00002","0,00001","-0,00001","-0,00001","-0,00002","-0,00001",0.37374556,-0.046482279,-0.13008758,0,1
465,0,"-0,00001","0,00002","0,00001","-0,00001","-0,00001","-0,00002","-0,00001",0.28426048,-0.028545838,-0.12103988,0,1
466,"-0,00001","-0,00001","0,00002","-0,00003","-0,00001","-0,00002","-0,00001",0,0.14957067,-0.0051893681,-0.040371232,0,1
468,"-0,00001","-0,00001","0,00002","-0,00003","-0,00001","-0,00002","-0,00001",0,0.22200404,-0.0029673033,-0.10429228,0,1
469,"-0,00001","-0,00001","0,00002","-0,00003","-0,00001","-0,00002","-0,00001",0,0.21602107,-0.011841202,-0.14935526,0,1
470,"-0,00001","-0,00001","0,00002","-0,00003","-0,00001","-0,00002","-0,00001",0,0.26857249,-0.018425387,-0.10476352,0,1
471,"-0,00001","-0,00001","0,00002","-0,00003","-0,00001","-0,00002","-0,00001",0,0.48249021,-0.021489383,-0.15497999,0,1
472,"-0,00001","-0,00001","0,00002","-0,00003","-0,00001","-0,00002","-0,00001",0,0.32140238,0.02575832,-0.022552835,0,1
473,"-0,00001","-0,00001","0,00002","-0,00003","-0,00001","-0,00002","-0,00001",0,0.21088246,0.0068403589,-0.054977077,0,1
474,"-0,00001","-0,00001","0,00002","-0,00003","-0,00001","-0,00002","-0,00001",0,0.17856694,-0.02263644,-0.097887422,0,1
475,"-0,00001","-0,00001","0,00002","-0,00003","-0,00001","-0,00002","-0,00001",0,0.23349642,-0.046622351,-0.1184478,0,1
476,"-0,00001","-0,00001","0,00002","-0,00003","-0,00001","-0,00002","-0,00001",0,0.27473751,0.0015783122,-0.12342557,0,1
477,"-0,00001","-0,00001","0,00002","-0,00003","-0,00001","-0,00002","-0,00001",0,0.26728659,-0.019647729,-0.10240656,0,1
478,"-0,00001","-0,00001","0,00002","-0,00003","-0,00001","-0,00002","-0,00001",0,0.34839724,-0.032357253,-0.11131923,0,1
479,"-0,00001","-0,00001","0,00002","-0,00003","-0,00001","-0,00002","-0,00001",0,0.33398592,0.006971351,-0.19180326,0,1
480,"-0,00001","-0,00001","0,00002","-0,00003","-0,00001","-0,00002","-0,00001",0,0.36323991,-0.091988202,-0.23958561,0,1
481,"-0,00001","-0,00001","0,00002","-0,00003","-0,00001","-0,00002","-0,00001",0,0.21150956,0.015320443,-0.085888577,0,1
482,"-0,00001","-0,00001","0,00002","-0,00003","-0,00001","-0,00002","-0,00001",0,0.14028257,-0.024774748,-0.058393749,0,1
483,"-0,00001","-0,00001","0,00002","-0,00003","-0,00001","-0,00002","-0,00001",0,0.30833231,-0.031230345,-0.023772515,0,1
484,"-0,00002","-0,00001","-0,00001","-0,00002",0,0,"-0,00002","-0,00001",0.30127859,-0.0081853394,-0.16820747,0,1
485,"-0,00002","-0,00001","-0,00001","-0,00002",0,0,"-0,00002","-0,00001",0.33356457,-0.012958909,-0.20506704,0,1
486,"-0,00002","-0,00001","-0,00001","-0,00002",0,0,"-0,00002","-0,00001",0.24842031,-0.0028505653,-0.086121566,0,1
489,"-0,00002","-0,00001","-0,00001","-0,00002",0,0,"-0,00002","-0,00001",0.17402448,-0.037292256,-0.10503359,0,1
490,"-0,00002","-0,00001","-0,00001","-0,00002",0,0,"-0,00002","-0,00001",0.33903608,-0.040870077,-0.11272809,0,1
491,"-0,00002","-0,00001","-0,00001","-0,00002",0,0,"-0,00002","-0,00001",0.36579586,-0.015943004,-0.082403319,0,1
492,"-0,00002","-0,00001","-0,00001","-0,00002",0,0,"-0,00002","-0,00001",0.23488534,0.0031079074,-0.13402199,0,1
493,"-0,00002","-0,00001","-0,00001","-0,00002",0,0,"-0,00002","-0,00001",0.17290917,-0.12207847,-0.11184651,0,1
494,"-0,00002","-0,00001","-0,00001","-0,00002",0,0,"-0,00002","-0,00001",0.24966739,-0.026959305,-0.11194671,0,1
495,"-0,00002","-0,00001","-0,00001","-0,00002",0,0,"-0,00002","-0,00001",0.37154184,-0.036892063,-0.07434504,0,1
496,"-0,00002","-0,00001","-0,00001","-0,00002",0,0,"-0,00002","-0,00001",0.38604971,-0.011091889,-0.084010603,0,1
497,"-0,00002","-0,00001","-0,00001","-0,00002",0,0,"-0,00002","-0,00001",0.27420703,-0.017415219,-0.15499538,0,1
498,"-0,00002","-0,00001","-0,00001","-0,00002",0,0,"-0,00002","-0,00001",0.24881813,-0.0082547695,-0.12541965,0,1
499,"-0,00002","-0,00001","-0,00001","-0,00002",0,0,"-0,00002","-0,00001",0.28987434,-0.024056563,-0.12302931,0,1
500,"-0,00002","-0,00001","-0,00001","-0,00002",0,0,"-0,00002","-0,00001",0.27175142,-0.052301652,-0.13282249,0,1
501,"-0,00002","-0,00001","-0,00001","-0,00002",0,0,"-0,00002","-0,00001",0.25342313,-0.034023083,-0.089549329,0,1
502,"-0,00002","-0,00001","-0,00001","-0,00002",0,0,"-0,00002","-0,00001",0.33411519,-0.13109183,-0.15126875,0,1
503,"-0,00002","-0,00001","-0,00001","-0,00002",0,0,"-0,00002","-0,00001",0.34863245,-0.041476271,-0.05500607,0,1
504,"-0,00002","-0,00001","-0,00001","-0,00002",0,0,"-0,00002","-0,00001",0.26105522,-0.024170981,-0.080604337,0,1
505,"-0,00002","-0,00001","-0,00001","-0,00002",0,0,"-0,00002","-0,00001",0.29821999,-0.022570919,-0.13833296,0,1
506,"-0,00001",0,"0,00001","0,00001",0,0,"-0,00002","-0,00002",0.27901789,-0.020843435,-0.087746132,0,1
507,"0,00001","-0,00002","-0,00003","-0,00002","-0,00002","-0,00003","-0,00002","-0,00001",0.24934673,-0.018999253,-0.065388479,0,1
508,"-0,00001","-0,00005","-0,00003","-0,00001","-0,00002",0,"-0,00001","-0,00003",0.28096328,-0.024715802,-0.153438,0,1
509,"-0,00001","-0,00005","-0,00003","-0,00001","-0,00002",0,"-0,00001","-0,00003",0.26011522,-0.009225646,-0.17514246,0,1
510,"-0,00001","-0,00005","-0,00003","-0,00001","-0,00002",0,"-0,00001","-0,00003",0.36712484,0.24610584,0.33931216,0,1
511,"-0,00001","-0,00005","-0,00003","-0,00001","-0,00002",0,"-0,00001","-0,00003",0.19050003,-0.028162994,0.047063509,0,1
512,"-0,00001","-0,00005","-0,00003","-0,00001","-0,00002",0,"-0,00001","-0,00003",0.31023328,-0.044826469,-0.20716881,0,1
513,"-0,00001","-0,00005","-0,00003","-0,00001","-0,00002",0,"-0,00001","-0,00003",0.29749006,-0.0040575498,-0.16087072,0,1
514,"-0,00001","-0,00005","-0,00003","-0,00001","-0,00002",0,"-0,00001","-0,00003",0.27799381,-0.0052553965,-0.12316028,0,1
515,"-0,00001","-0,00005","-0,00003","-0,00001","-0,00002",0,"-0,00001","-0,00003",0.28148819,-0.029252444,-0.12181828,0,1
516,"-0,00001","-0,00005","-0,00003","-0,00001","-0,00002",0,"-0,00001","-0,00003",0.27885312,-0.028739355,-0.10930185,0,1
517,"-0,00001","-0,00005","-0,00003","-0,00001","-0,00002",0,"-0,00001","-0,00003",0.2854892,-0.024575917,-0.1407388,0,1
518,"-0,00001","-0,00005","-0,00003","-0,00001","-0,00002",0,"-0,00001","-0,00003",0.28141963,-0.018489534,-0.1329983,0,1
519,"-0,00001","-0,00005","-0,00003","-0,00001","-0,00002",0,"-0,00001","-0,00003",0.27151202,-0.01879681,-0.086495192,0,1
520,"-0,00001","-0,00005","-0,00003","-0,00001","-0,00002",0,"-0,00001","-0,00003",0.2701509,-0.0066498908,-0.070094547,0,1
521,"-0,00001","-0,00005","-0,00003","-0,00001","-0,00002",0,"-0,00001","-0,00003",0.27543487,-0.0069991706,-0.10718854,0,1
522,"-0,00001","-0,00005","-0,00003","-0,00001","-0,00002",0,"-0,00001","-0,00003",0.27566389,-0.017385183,-0.10574463,0,1
523,"-0,00001","-0,00005","-0,00003","-0,00001","-0,00002",0,"-0,00001","-0,00003",0.28341065,-0.023547821,-0.12553787,0,1
524,"-0,00001","-0,00005","-0,00003","-0,00001","-0,00002",0,"-0,00001","-0,00003",0.28319449,-0.024927815,-0.12568548,0,1
525,"-0,00001","-0,00005","-0,00003","-0,00001","-0,00002",0,"-0,00001","-0,00003",0.27608047,-0.044892866,-0.11972813,0,1
526,"-0,00001","-0,00005","-0,00003","-0,00001","-0,00002",0,"-0,00001","-0,00003",0.39858287,0.18626034,-0.035933018,0,1
529,"-0,00001","-0,00007","-0,00005","-0,00004","-0,00002","-0,00001","-0,00001","-0,00001",0.26641823,-0.057992817,-0.13796654,0,1
530,"-0,00001","-0,00007","-0,00005","-0,00004","-0,00002","-0,00001","-0,00001","-0,00001",0.28072709,-0.029906051,-0.14123956,0,1
531,"-0,00001","-0,00007","-0,00005","-0,00004","-0,00002","-0,00001","-0,00001","-0,00001",0.28124873,-0.019284539,-0.10577073,0,1
532,"-0,00001","-0,00007","-0,00005","-0,00004","-0,00002","-0,00001","-0,00001","-0,00001",0.27333711,0.020901722,-0.085464587,0,1
533,"-0,00001","-0,00007","-0,00005","-0,00004","-0,00002","-0,00001","-0,00001","-0,00001",0.27413712,0.00087612591,-0.088950317,0,1
534,"-0,00001","-0,00007","-0,00005","-0,00004","-0,00002","-0,00001","-0,00001","-0,00001",0.27753373,-0.048244353,-0.10137557,0,1
535,"-0,00001","-0,00007","-0,00005","-0,00004","-0,00002","-0,00001","-0,00001","-0,00001",0.28102791,-0.014189564,-0.11795061,0,1
536,"-0,00001","-0,00007","-0,00005","-0,00004","-0,00002","-0,00001","-0,00001","-0,00001",0.28302122,0.020707886,-0.15977187,0,1
539,"-0,00001","-0,00007","-0,00005","-0,00004","-0,00002","-0,00001","-0,00001","-0,00001",0.27710382,-0.013321072,-0.11493253,0,1
540,"-0,00001","-0,00007","-0,00005","-0,00004","-0,00002","-0,00001","-0,00001","-0,00001",0.27450554,-0.049374149,-0.06557248,0,1
541,"-0,00001","-0,00007","-0,00005","-0,00004","-0,00002","-0,00001","-0,00001","-0,00001",0.27135016,-0.021277032,-0.10487863,0,1
542,"-0,00001","0,00001","0,00001","0,00002",0,"0,00001","-0,00001","-0,00002",0.079402186,0.14062679,-0.1252977,0,1
544,"-0,00001","0,00001","0,00001","0,00002",0,"0,00001","-0,00001","-0,00002",0.28204284,-0.057987551,-0.1198413,0,1
545,"-0,00001","0,00001","0,00001","0,00002",0,"0,00001","-0,00001","-0,00002",0.28472725,-0.0092622469,-0.11309078,0,1
546,"-0,00001","0,00001","0,00001","0,00002",0,"0,00001","-0,00001","-0,00002",0.27583242,-0.015331246,-0.10535827,0,1
547,"-0,00001","0,00001","0,00001","0,00002",0,"0,00001","-0,00001","-0,00002",0.27231528,-0.015412665,-0.1070142,0,1
548,"-0,00001","0,00001","0,00001","0,00002",0,"0,00001","-0,00001","-0,00002",0.27099024,-0.013259527,-0.1149968,0,1
549,"-0,00001","0,00001","0,00001","0,00002",0,"0,00001","-0,00001","-0,00002",0.2642178,-0.012400398,-0.092979284,0,1
550,"-0,00001","0,00001","0,00001","0,00002",0,"0,00001","-0,00001","-0,00002",0.26619674,-0.014443952,-0.075342659,0,1
551,"-0,00001","0,00001","0,00001","0,00002",0,"0,00001","-0,00001","-0,00002",0.28617733,-0.020494997,-0.10731703,0,1
552,"-0,00001","0,00001","0,00001","0,00002",0,"0,00001","-0,00001","-0,00002",0.28599478,-0.0176916,-0.14280066,0,1
553,"-0,00001","0,00001","0,00001","0,00002",0,"0,00001","-0,00001","-0,00002",0.26800319,-0.011157346,-0.1226489,0,1
554,"-0,00001","0,00001","0,00001","0,00002",0,"0,00001","-0,00001","-0,00002",0.27493336,-0.016660817,-0.11120669,0,1
555,"-0,00001","0,00001","0,00001","0,00002",0,"0,00001","-0,00001","-0,00002",0.27825684,-0.016752712,-0.10804593,0,1
556,"-0,00001","0,00001","0,00001","0,00002",0,"0,00001","-0,00001","-0,00002",0.27549278,-0.0148767,-0.11276456,0,1
557,"-0,00001","0,00001","0,00001","0,00002",0,"0,00001","-0,00001","-0,00002",0.27528208,0.12667924,0.0788793,0,1
558,"-0,00002","0,00001","-0,00003","-0,00003","-0,00001","-0,00002","-0,00001","-0,00002",0.31210237,-0.047990691,-0.21074605,0,1
559,"-0,00002",0,"-0,00003","-0,00003","-0,00001",0,"-0,00001","-0,00001",0.27742856,-0.057169731,-0.12376359,0,1
560,"-0,00002",0,"-0,00003","-0,00003","-0,00001",0,"-0,00001","-0,00001",0.27780483,-0.036323811,-0.10447288,0,1
561,"-0,00002",0,"-0,00003","-0,00003","-0,00001",0,"-0,00001","-0,00001",0.27725952,-0.0048038739,-0.098744145,0,1
562,"-0,00002",0,"-0,00003","-0,00003","-0,00001",0,"-0,00001","-0,00001",0.2761973,0.005411349,-0.10725159,0,1
563,"-0,00002",0,"-0,00003","-0,00003","-0,00001",0,"-0,00001","-0,00001",0.27395934,-0.017890333,-0.095111558,0,1
564,"-0,00002",0,"-0,00003","-0,00003","-0,00001",0,"-0,00001","-0,00001",0.26716515,0.027108345,-0.06825135,0,1
565,"-0,00002",0,"-0,00003","-0,00003","-0,00001",0,"-0,00001","-0,00001",0.26021014,0.065940955,-0.10657054,0,1
566,"-0,00002",0,"-0,00003","-0,00003","-0,00001",0,"-0,00001","-0,00001",0.27084629,-0.040086523,-0.08776648,0,1
567,"-0,00002",0,"-0,00003","-0,00003","-0,00001",0,"-0,00001","-0,00001",0.2855496,-0.072470086,-0.057243547,0,1
568,"-0,00002",0,"-0,00003","-0,00003","-0,00001",0,"-0,00001","-0,00001",0.28384658,-0.028349849,-0.12659896,0,1
569,"-0,00002",0,"-0,00003","-0,00003","-0,00001",0,"-0,00001","-0,00001",-0.27033343,0.059234721,-0.056666829,0,1
570,"-0,00002",0,"-0,00003","-0,00003","-0,00001",0,"-0,00001","-0,00001",0.35770991,-0.035391223,-0.1034982,0,1
571,"-0,00002",0,"-0,00003","-0,00003","-0,00001",0,"-0,00001","-0,00001",0.26299648,-0.01304195,-0.11436236,0,1
572,"-0,00002",0,"-0,00003","-0,00003","-0,00001",0,"-0,00001","-0,00001",0.25903815,-0.015621731,-0.10684629,0,1
573,"-0,00002",0,"-0,00003","-0,00003","-0,00001",0,"-0,00001","-0,00001",0.28407807,-0.017065177,-0.11823165,0,1
574,"-0,00002",0,"-0,00003","-0,00003","-0,00001",0,"-0,00001","-0,00001",0.29224468,-0.016465621,-0.11807373,0,1
575,"-0,00002",0,"-0,00003","-0,00003","-0,00001",0,"-0,00001","-0,00001",0.28900955,-0.018282427,-0.10619326,0,1
576,"-0,00002",0,"-0,00003","-0,00003","-0,00001",0,"-0,00001","-0,00001",0.2807251,-0.016330983,-0.11064293,0,1
577,"-0,00002",0,"-0,00003","-0,00003","-0,00001",0,"-0,00001","-0,00001",0.26654807,-0.01588764,-0.1068745,0,1
578,"-0,00002",0,"-0,00003","-0,00003","-0,00001",0,"-0,00001","-0,00001",0.25779981,-0.016095206,-0.10674798,0,1
579,"-0,00002",0,"-0,00003","-0,00003","-0,00001",0,"-0,00001","-0,00001",0.26238894,-0.017120727,-0.11182821,0,1
580,"-0,00003","-0,00002","0,00001","-0,00002","-0,00001","-0,00002",0,"-0,00003",0.27740118,-0.017043803,-0.11081067,0,1
581,"-0,00003","-0,00002","0,00001","-0,00002","-0,00001","-0,00002",0,"-0,00003",0.061186573,-0.011163862,-0.036830383,0,1
582,"-0,00002","-0,00001","-0,00001","-0,00001","0,00001","-0,00003","-0,00001",0,0.34391723,-0.031638123,-0.11876799,0,1
583,"-0,00002","-0,00001","-0,00001","-0,00001","0,00001","-0,00003","-0,00001",0,0.26942456,-0.01055157,-0.11720196,0,1
584,"-0,00002","-0,00001","-0,00001","-0,00001","0,00001","-0,00003","-0,00001",0,0.27537018,-0.017070771,-0.1096177,0,1
585,"-0,00002","-0,00001","-0,00001","-0,00001","0,00001","-0,00003","-0,00001",0,0.28422452,-0.018274176,-0.11417142,0,1
586,"-0,00002",0,"-0,00003","0,00001","-0,00003",0,"-0,00002",0,0.27924636,-0.016580887,-0.10730724,0,1
588,"-0,00002",0,"-0,00003","0,00001","-0,00003",0,"-0,00002",0,0.27861241,-0.016744862,-0.10783497,0,1
589,"-0,00002",0,"-0,00003","0,00001","-0,00003",0,"-0,00002",0,0.27367494,-0.01676983,-0.1122094,0,1
590,"-0,00002",0,"-0,00003","0,00001","-0,00003",0,"-0,00002",0,0.27657213,-0.015897829,-0.11152089,0,1
591,"-0,00002",0,"-0,00003","0,00001","-0,00003",0,"-0,00002",0,0.27831789,-0.017513229,-0.11094936,0,1
592,"-0,00002",0,"-0,00003","0,00001","-0,00003",0,"-0,00002",0,0.27248973,-0.018007417,-0.10639905,0,1
593,"-0,00002",0,"-0,00003","0,00001","-0,00003",0,"-0,00002",0,0.27721839,-0.016698134,-0.10710786,0,1
594,"-0,00002",0,"-0,00003","0,00001","-0,00003",0,"-0,00002",0,0.29163418,-0.014972881,-0.15976364,0,1
595,"-0,00002",0,"-0,00003","0,00001","-0,00003",0,"-0,00002",0,0.28512039,0.0067621401,-0.087324093,0,1
596,"-0,00002",0,"-0,00003","0,00001","-0,00003",0,"-0,00002",0,0.24066899,-0.040748481,-0.10772871,0,1
597,"-0,00002",0,"-0,00003","0,00001","-0,00003",0,"-0,00002",0,0.30247452,-0.015351499,-0.12844592,0,1
598,"-0,00002",0,"-0,00003","0,00001","-0,00003",0,"-0,00002",0,0.28243899,0.001155636,-0.13047289,0,1
599,"-0,00002",0,"-0,00003","0,00001","-0,00003",0,"-0,00002",0,0.29491553,-0.020137607,-0.091818099,0,1
600,"-0,00002",0,"-0,00003","0,00001","-0,00003",0,"-0,00002",0,0.2504735,-0.035023747,-0.084093353,0,1
601,"-0,00002",0,"-0,00003","0,00001","-0,00003",0,"-0,00002",0,0.23922113,0.0065782558,-0.12706812,0,1
602,0,"-0,00002","-0,00002","-0,00001","-0,00002","-0,00002",0,"-0,00002",0.33770701,-0.0042082511,-0.1310831,0,1
603,0,"-0,00002","-0,00002","-0,00001","-0,00002","-0,00002",0,"-0,00002",0.26852186,-0.042939982,-0.072588418,0,1
604,0,"-0,00002","-0,00002","-0,00001","-0,00002","-0,00002",0,"-0,00002",0.24843563,-0.020143338,-0.074775553,0,1
605,0,"-0,00002","-0,00002","-0,00001","-0,00002","-0,00002",0,"-0,00002",0.26889439,-0.015807914,-0.11939586,0,1
606,0,"-0,00002","-0,00002","-0,00001","-0,00002","-0,00002",0,"-0,00002",0.30344228,-0.022841831,-0.13996845,0,1
607,0,"-0,00002","-0,00002","-0,00001","-0,00002","-0,00002",0,"-0,00002",0.29192158,-0.010980288,-0.11394106,0,1
608,0,"-0,00002","-0,00002","-0,00001","-0,00002","-0,00002",0,"-0,00002",0.26841076,0.020047468,-0.19595794,0,1
609,"-0,00001","-0,00003","-0,00004","-0,00003",0,"-0,00001","0,00002","0,00001",0.30029053,-0.055739891,-0.13905246,0,1
610,"-0,00001","-0,00003","-0,00004","-0,00003",0,"-0,00001","0,00002","0,00001",0.27454548,0.010493163,-0.14317331,0,1
611,"-0,00001","-0,00003","-0,00004","-0,00003",0,"-0,00001","0,00002","0,00001",0.28836911,-0.012305963,-0.10517003,0,1
612,"-0,00001","-0,00003","-0,00004","-0,00003",0,"-0,00001","0,00002","0,00001",0.26482439,-0.021515022,-0.086917894,0,1
613,"-0,00001","-0,00003","-0,00004","-0,00003",0,"-0,00001","0,00002","0,00001",0.31564506,-0.018495012,-0.12568041,0,1
614,"-0,00001","-0,00003","-0,00004","-0,00003",0,"-0,00001","0,00002","0,00001",0.30447714,-0.017665493,-0.089242297,0,1
615,"-0,00001","-0,00003","-0,00004","-0,00003",0,"-0,00001","0,00002","0,00001",0.20046704,-0.026278572,-0.086678057,0,1
616,"-0,00001","-0,00003","-0,00004","-0,00003",0,"-0,00001","0,00002","0,00001",0.26030918,-0.011686588,-0.11975587,0,1
617,"-0,00001","-0,00003","-0,00004","-0,00003",0,"-0,00001","0,00002","0,00001",0.30906248,-0.0090706387,-0.16277919,0,1
618,"-0,00001","-0,00003","-0,00004","-0,00003",0,"-0,00001","0,00002","0,00001",0.30166119,-0.019919391,-0.0907304,0,1
619,"-0,00001","-0,00003","-0,00004","-0,00003",0,"-0,00001","0,00002","0,00001",0.20956471,-0.020663275,-0.042663638,0,1
620,"-0,00001","-0,00003","-0,00004","-0,00003",0,"-0,00001","0,00002","0,00001",0.27821911,-0.024317013,-0.13207519,0,1
621,"-0,00001","-0,00003","-0,00004","-0,00003",0,"-0,00001","0,00002","0,00001",0.32661005,-0.016921005,-0.1508,0,1
622,"-0,00001","-0,00003","-0,00004","-0,00003",0,"-0,00001","0,00002","0,00001",0.26980626,-0.00025139395,-0.071798929,0,1
623,"-0,00001","-0,00003","-0,00004","-0,00003",0,"-0,00001","0,00002","0,00001",0.36400551,-0.011985323,-0.13797327,0,1
624,"-0,00001","-0,00003","-0,00004","-0,00003",0,"-0,00001","0,00002","0,00001",0.35510843,0.018031926,-0.070406626,0,1
625,"-0,00001","-0,00003","-0,00004","-0,00003",0,"-0,00001","0,00002","0,00001",0.36403235,-0.042051321,-0.1039141,0,1
626,"-0,00001","-0,00003","-0,00004","-0,00003",0,"-0,00001","0,00002","0,00001",0.21899076,-0.029465827,-0.091102532,0,1
627,"-0,00001","-0,00003","-0,00004","-0,00003",0,"-0,00001","0,00002","0,00001",0.21748354,0.030261646,-0.10473244,0,1
628,"-0,00001","-0,00003","-0,00004","-0,00003",0,"-0,00001","0,00002","0,00001",0.22571795,-0.039452822,-0.14404035,0,1
629,"-0,00001","-0,00003","-0,00004","-0,00003",0,"-0,00001","0,00002","0,00001",0.23403677,-0.038275976,-0.12799348,0,1
630,"-0,00001","-0,00003","-0,00004","-0,00003",0,"-0,00001","0,00002","0,00001",0.3708507,0.02314204,-0.14165105,0,1
631,"-0,00001","-0,00003","-0,00004","-0,00003",0,"-0,00001","0,00002","0,00001",0.2586033,0.012907529,-0.084638902,0,1
632,"-0,00001","-0,00003","-0,00004","-0,00003",0,"-0,00001","0,00002","0,00001",0.30990241,0.021053218,-0.15243574,0,1
633,"-0,00004","-0,00006","-0,00001",0,0,"-0,00003",0,0,0.23899183,-0.042579971,-0.085303612,0,1
634,"-0,00004","-0,00006","-0,00001",0,0,"-0,00003",0,0,0.40689452,-0.027527223,-0.051406937,0,1
635,"-0,00004","-0,00006","-0,00001",0,0,"-0,00003",0,0,0.35804906,-0.028888096,-0.10848229,0,1
636,"-0,00004","-0,00006","-0,00001",0,0,"-0,00003",0,0,0.12166437,-0.042791613,-0.12842315,0,1
639,"-0,00004","-0,00006","-0,00001",0,0,"-0,00003",0,0,0.16016873,0.012275909,-0.17618024,0,1
640,"-0,00004","-0,00006","-0,00001",0,0,"-0,00003",0,0,0.34577011,0.008331067,-0.12970563,0,1
641,"-0,00004","-0,00006","-0,00001",0,0,"-0,00003",0,0,0.26170209,0.0098124347,-0.13133701,0,1
642,"-0,00004","-0,00006","-0,00001",0,0,"-0,00003",0,0,0.3789949,-0.05024955,-0.076372861,0,1
643,"-0,00004","-0,00006","-0,00001",0,0,"-0,00003",0,0,0.26937883,-0.037452758,-0.10216728,0,1
644,"-0,00004","-0,00006","-0,00001",0,0,"-0,00003",0,0,0.13771755,0.0018420117,-0.07185554,0,1
645,"-0,00004","-0,00006","-0,00001",0,0,"-0,00003",0,0,0.35522774,-0.0017599745,-0.10702329,0,1
646,"-0,00004","-0,00006","-0,00001",0,0,"-0,00003",0,0,0.27377455,-0.0037138714,-0.22327604,0,1
647,"-0,00004","-0,00006","-0,00001",0,0,"-0,00003",0,0,0.23644039,-0.12193899,-0.15942202,0,1
648,"-0,00004","-0,00006","-0,00001",0,0,"-0,00003",0,0,0.31364281,-0.0021203364,-0.057606745,0,1
649,"-0,00004","-0,00006","-0,00001",0,0,"-0,00003",0,0,0.33823101,-0.00090524071,-0.067775189,0,1
650,"-0,00004","-0,00006","-0,00001",0,0,"-0,00003",0,0,0.26722577,-0.015071218,-0.10317502,0,1
651,"-0,00004","-0,00006","-0,00001",0,0,"-0,00003",0,0,0.24148213,-0.053850982,-0.083056366,0,1
652,"-0,00004","-0,00006","-0,00001",0,0,"-0,00003",0,0,0.27492864,-0.04149706,-0.13585848,0,1
653,"-0,00004","-0,00006","-0,00001",0,0,"-0,00003",0,0,0.19479704,-0.0093078134,-0.14639459,0,1
654,"-0,00004","-0,00006","-0,00001",0,0,"-0,00003",0,0,0.19108755,-0.011703716,-0.14941735,0,1
655,"0,00001","0,00002","0,00001",0,"-0,00001","-0,00002","-0,00003","-0,00001",0.23864352,-0.12418937,-0.13710491,0,1
656,"-0,00001","-0,00001","-0,00003","-0,00001",0,"0,00002",0,0,0.37661057,-0.010742054,-0.099111386,0,1
657,"-0,00001","-0,00001","-0,00003","-0,00001",0,"0,00002",0,0,0.39366628,-0.010218646,-0.13163478,0,1
658,"-0,00001","-0,00001","-0,00003","-0,00001",0,"0,00002",0,0,0.26265802,-0.0286908,-0.12072256,0,1
659,"-0,00001","-0,00001","-0,00003","-0,00001",0,"0,00002",0,0,0.23088375,-0.025104612,-0.070413035,0,1
660,"-0,00001","-0,00001","-0,00003","-0,00001",0,"0,00002",0,0,0.2957943,-0.036844175,-0.1144386,0,1
661,"-0,00001","-0,00001","-0,00003","-0,00001",0,"0,00002",0,0,0.18529287,0.00081271653,-0.14176694,0,1
662,"0,00001",0,"0,00001",0,"-0,00001","-0,00001","-0,00001",0,0.15940435,0.010533098,-0.11574261,0,1
663,"0,00001","0,00004","-0,00001","-0,00001",0,"-0,00002","-0,00002","-0,00002",0.29807391,-0.20173135,-0.20478727,0,1
664,"0,00001","0,00004","-0,00001","-0,00001",0,"-0,00002","-0,00002","-0,00002",0.21463291,-0.014642436,-0.11018036,0,1
665,"0,00001","0,00004","-0,00001","-0,00001",0,"-0,00002","-0,00002","-0,00002",0.20637424,-6.2653314e-05,-0.08890752,0,1
666,"0,00001","0,00004","-0,00001","-0,00001",0,"-0,00002","-0,00002","-0,00002",0.30506435,-0.0056742337,-0.07407593,0,1
667,"0,00001","0,00004","-0,00001","-0,00001",0,"-0,00002","-0,00002","-0,00002",0.32496752,0.035031384,-0.051698119,0,1
668,"0,00001","0,00004","-0,00001","-0,00001",0,"-0,00002","-0,00002","-0,00002",0.28750332,-0.048242483,-0.081209931,0,1
670,"0,00001","0,00004","-0,00001","-0,00001",0,"-0,00002","-0,00002","-0,00002",0.21894807,-0.050101861,-0.12312134,0,1
671,"0,00001","0,00004","-0,00001","-0,00001",0,"-0,00002","-0,00002","-0,00002",0.1791572,-0.02288726,-0.15567491,0,1
672,"0,00001","0,00004","-0,00001","-0,00001",0,"-0,00002","-0,00002","-0,00002",0.27911531,0.01056235,-0.059284912,0,1
673,"0,00001","0,00004","-0,00001","-0,00001",0,"-0,00002","-0,00002","-0,00002",0.28054459,-0.021530718,-0.11056913,0,1
674,"0,00001","0,00004","-0,00001","-0,00001",0,"-0,00002","-0,00002","-0,00002",0.27220598,-0.017500432,-0.09457415,0,1
675,"0,00001","0,00004","-0,00001","-0,00001",0,"-0,00002","-0,00002","-0,00002",0.27142722,-0.019603709,-0.078243188,0,1
676,"0,00001","0,00004","-0,00001","-0,00001",0,"-0,00002","-0,00002","-0,00002",0.28388166,-0.021874168,-0.12257745,0,1
677,"0,00001","0,00004","-0,00001","-0,00001",0,"-0,00002","-0,00002","-0,00002",0.28114415,-0.020836641,-0.13505985,0,1
678,"-0,00002","-0,00001","0,00001",0,0,0,"0,00001","-0,00002",0.27893183,-0.017987423,-0.11426485,0,1
679,"-0,00002","-0,00001","0,00001",0,0,0,"0,00001","-0,00002",0.27755079,-0.014363712,-0.10170465,0,1
680,"-0,00002","-0,00001","0,00001",0,0,0,"0,00001","-0,00002",0.2738738,-0.014017638,-0.10025853,0,1
681,"-0,00002","-0,00001","0,00001",0,0,0,"0,00001","-0,00002",0.2759053,-0.018010752,-0.10610959,0,1
682,"-0,00002","-0,00001","0,00001",0,0,0,"0,00001","-0,00002",0.30239387,-0.015771145,-0.046833093,0,1
683,"-0,00002","-0,00001","0,00001",0,0,0,"0,00001","-0,00002",0.27010979,-0.020743235,-0.11673824,0,1
684,"0,00003","0,00002","-0,00001","-0,00001",0,"-0,00002","-0,00001","0,00001",0.27436017,-0.016406789,-0.082983662,0,1
685,"0,00003","0,00002","-0,00001","-0,00001",0,"-0,00002","-0,00001","0,00001",0.27576294,-0.013671637,-0.09446572,0,1
686,"0,00003","0,00002","-0,00001","-0,00001",0,"-0,00002","-0,00001","0,00001",0.27633541,-0.013908524,-0.11080606,0,1
689,"0,00003","0,00002","-0,00001","-0,00001",0,"-0,00002","-0,00001","0,00001",0.2750132,-0.015239279,-0.10954591,0,1
690,"0,00003","0,00002","-0,00001","-0,00001",0,"-0,00002","-0,00001","0,00001",0.27788523,-0.017263995,-0.10479985,0,1
691,"0,00003","0,00002","-0,00001","-0,00001",0,"-0,00002","-0,00001","0,00001",0.28287427,-0.01425164,-0.11641223,0,1
692,"0,00003","0,00002","-0,00001","-0,00001",0,"-0,00002","-0,00001","0,00001",0.29365488,-0.041640983,-0.17607315,0,1
693,"0,00003","0,00002","-0,00001","-0,00001",0,"-0,00002","-0,00001","0,00001",0.28757138,-0.03892643,-0.15372476,0,1
694,"0,00003","0,00002","-0,00001","-0,00001",0,"-0,00002","-0,00001","0,00001",0.26459293,0.015780489,-0.060545492,0,1
695,"0,00003","0,00002","-0,00001","-0,00001",0,"-0,00002","-0,00001","0,00001",0.27010488,0.0092401457,-0.07207767,0,1
696,"0,00003","0,00002","-0,00001","-0,00001",0,"-0,00002","-0,00001","0,00001",0.23379765,-0.0089945852,-0.068190706,0,1
697,"0,00003","0,00002","-0,00001","-0,00001",0,"-0,00002","-0,00001","0,00001",0.29227472,-0.02241997,-0.13985486,0,1
698,"0,00003","0,00002","-0,00001","-0,00001",0,"-0,00002","-0,00001","0,00001",0.28873745,-0.01691176,-0.13889369,0,1
699,"0,00003","0,00002","-0,00001","-0,00001",0,"-0,00002","-0,00001","0,00001",0.28146396,-0.019342561,-0.11788621,0,1
700,"0,00003","0,00002","-0,00001","-0,00001",0,"-0,00002","-0,00001","0,00001",0.27577107,-0.017171804,-0.10492841,0,1
701,"0,00003","0,00002","-0,00001","-0,00001",0,"-0,00002","-0,00001","0,00001",0.27581207,-0.017880268,-0.1039486,0,1
702,"0,00003","0,00002","-0,00001","-0,00001",0,"-0,00002","-0,00001","0,00001",0.28033541,-0.019079887,-0.11028346,0,1
703,"0,00003","0,00002","-0,00001","-0,00001",0,"-0,00002","-0,00001","0,00001",0.27949435,-0.018060544,-0.11905939,0,1
704,"0,00003","0,00002","-0,00001","-0,00001",0,"-0,00002","-0,00001","0,00001",0.2758823,-0.016911343,-0.11111063,0,1
705,"0,00003","0,00002","-0,00001","-0,00001",0,"-0,00002","-0,00001","0,00001",0.27659813,-0.014730308,-0.10562341,0,1
706,"0,00003","0,00002","-0,00001","-0,00001",0,"-0,00002","-0,00001","0,00001",0.27869959,-0.015058348,-0.10791356,0,1
707,"0,00003","0,00002","-0,00001","-0,00001",0,"-0,00002","-0,00001","0,00001",0.23968895,-0.02700088,-0.056882975,0,1
708,"-0,00001","-0,00001","-0,00001","-0,00001","-0,00003","-0,00001","-0,00002",0,0.30353079,-0.018931141,-0.13329166,0,1
709,0,"-0,00001","0,00002","0,00001",0,0,0,"-0,00001",0.27393338,-0.008602606,-0.11295468,0,1
710,0,"-0,00001","0,00002","0,00001",0,0,0,"-0,00001",0.27545496,-0.013879503,-0.10857249,0,1
711,0,"-0,00001","0,00002","0,00001",0,0,0,"-0,00001",0.27922977,-0.016394322,-0.11672419,0,1
712,0,"-0,00001","0,00002","0,00001",0,0,0,"-0,00001",0.28152183,-0.027618206,-0.1394211,0,1
713,0,"-0,00001","0,00002","0,00001",0,0,0,"-0,00001",0.27710335,-0.018334334,-0.12816714,0,1
714,0,"-0,00001","0,00002","0,00001",0,0,0,"-0,00001",0.26872938,0.0050717783,-0.11269651,0,1
715,0,"-0,00001","0,00002","0,00001",0,0,0,"-0,00001",0.27550916,-0.01492251,-0.085847916,0,1
716,0,"-0,00001","0,00002","0,00001",0,0,0,"-0,00001",0.28086926,-0.026303022,-0.097616309,0,1
717,0,"-0,00001","0,00002","0,00001",0,0,0,"-0,00001",0.27962823,-0.018238347,-0.12756565,0,1
718,0,"-0,00001","0,00002","0,00001",0,0,0,"-0,00001",0.27731027,-0.015722833,-0.090720425,0,1
719,0,"-0,00001","0,00002","0,00001",0,0,0,"-0,00001",0.27669713,-0.014802084,-0.10155309,0,1
720,0,"-0,00001","0,00002","0,00001",0,0,0,"-0,00001",0.27757833,-0.014380308,-0.1182158,0,1
721,0,"-0,00001","0,00002","0,00001",0,0,0,"-0,00001",-0.41627026,-0.024966026,-0.034779749,0,1
722,0,"-0,00001","0,00002","0,00001",0,0,0,"-0,00001",0.39232475,-0.036101162,-0.13142947,0,1
723,0,"-0,00001","0,00002","0,00001",0,0,0,"-0,00001",0.2586773,-0.011112148,-0.10618486,0,1
724,0,"-0,00001","0,00002","0,00001",0,0,0,"-0,00001",0.2060255,-0.020043785,-0.11074855,0,1
725,0,"-0,00001","0,00002","0,00001",0,0,0,"-0,00001",0.17617081,-0.03539695,-0.10972114,0,1
726,0,"-0,00001","0,00002","0,00001",0,0,0,"-0,00001",0.22729781,-0.024895481,-0.11033182,0,1
727,0,"-0,00001","0,00002","0,00001",0,0,0,"-0,00001",0.29116623,-0.018296911,-0.10598526,0,1
728,0,"-0,00001","0,00002","0,00001",0,0,0,"-0,00001",0.27181137,-0.018151458,-0.10816409,0,1
729,0,"-0,00001","0,00002","0,00001",0,0,0,"-0,00001",0.27523237,-0.019276583,-0.1087394,0,1
730,0,"-0,00001","0,00002","0,00001",0,0,0,"-0,00001",0.28351827,-0.021130093,-0.10764403,0,1
731,"-0,00002","-0,00001","-0,00002","-0,00001","-0,00003","0,00001","0,00001",0,0.28838273,-0.017807675,-0.10853344,0,1
732,"-0,00002","0,00002","0,00002",0,"-0,00002","-0,00001","-0,00001","-0,00001",0.29275667,-0.013916691,-0.10774243,0,1
733,"-0,00002","0,00002","0,00002",0,"-0,00002","-0,00001","-0,00001","-0,00001",0.11384184,-0.11251405,-0.11870617,0,1
734,"-0,00002","0,00002","0,00002",0,"-0,00002","-0,00001","-0,00001","-0,00001",0.21684883,-0.043106339,-0.11073282,0,1
735,"-0,00002","0,00002","0,00002",0,"-0,00002","-0,00001","-0,00001","-0,00001",0.27161479,-0.028221339,-0.10151911,0,1
736,"-0,00002","0,00002","0,00002",0,"-0,00002","-0,00001","-0,00001","-0,00001",0.28402103,-0.018403077,-0.10821976,0,1
739,"-0,00003","-0,00005","-0,00002","-0,00001","-0,00002","-0,00002","-0,00002",0,0.28598248,-0.013903898,-0.10709311,0,1
740,"-0,00003","-0,00005","-0,00002","-0,00001","-0,00002","-0,00002","-0,00002",0,0.31987501,-0.0068985993,-0.11119043,0,1
741,"-0,00003","-0,00005","-0,00002","-0,00001","-0,00002","-0,00002","-0,00002",0,0.29583035,-0.0022133121,-0.11105857,0,1
742,"-0,00003","-0,00005","-0,00002","-0,00001","-0,00002","-0,00002","-0,00002",0,0.25230455,-0.032651944,-0.10064527,0,1
743,"-0,00003","-0,00005","-0,00002","-0,00001","-0,00002","-0,00002","-0,00002",0,0.2705239,-0.032988297,-0.10617797,0,1
744,"-0,00001","-0,00001","0,00003","-0,00004","-0,00003","-0,00002","-0,00003","-0,00002",0.22404196,-0.022026203,-0.11496887,0,1
745,"-0,00001","-0,00001","0,00003","-0,00004","-0,00003","-0,00002","-0,00003","-0,00002",0.2538937,-0.019548917,-0.10853676,0,1
746,"-0,00001","-0,00001","0,00003","-0,00004","-0,00003","-0,00002","-0,00003","-0,00002",0.28716162,-0.016669008,-0.10500043,0,1
747,"-0,00001","-0,00001","0,00003","-0,00004","-0,00003","-0,00002","-0,00003","-0,00002",0.25692753,-0.077237772,-0.15986202,0,1
748,"-0,00001","-0,00001","0,00003","-0,00004","-0,00003","-0,00002","-0,00003","-0,00002",0.29299566,-0.032579846,-0.060720267,0,1
749,"-0,00001","-0,00001","0,00003","-0,00004","-0,00003","-0,00002","-0,00003","-0,00002",0.31213933,-0.00048497069,-0.11742318,0,1
750,"-0,00001","-0,00001","0,00003","-0,00004","-0,00003","-0,00002","-0,00003","-0,00002",0.28917278,-0.0033662174,-0.08607509,0,1
751,"-0,00001","-0,00001","0,00003","-0,00004","-0,00003","-0,00002","-0,00003","-0,00002",0.24773273,-0.037916705,-0.14063085,0,1
752,"-0,00001","-0,00001","0,00003","-0,00004","-0,00003","-0,00002","-0,00003","-0,00002",0.30160727,-0.018933459,-0.12417177,0,1
753,"-0,00001","-0,00001","0,00003","-0,00004","-0,00003","-0,00002","-0,00003","-0,00002",0.25926263,0.0012913056,-0.06855725,0,1
754,"-0,00001","-0,00001","0,00003","-0,00004","-0,00003","-0,00002","-0,00003","-0,00002",0.24894921,-0.026779687,-0.091554138,0,1
755,"-0,00001","-0,00001","0,00003","-0,00004","-0,00003","-0,00002","-0,00003","-0,00002",0.30394848,-0.039207868,-0.085620878,0,1
756,"-0,00001","-0,00001","0,00003","-0,00004","-0,00003","-0,00002","-0,00003","-0,00002",0.30218429,-0.033786785,-0.13072719,0,1
757,"-0,00001","-0,00001","0,00003","-0,00004","-0,00003","-0,00002","-0,00003","-0,00002",0.22433029,0.0043613843,-0.10903042,0,1
758,"-0,00001","-0,00001","0,00003","-0,00004","-0,00003","-0,00002","-0,00003","-0,00002",0.32201286,-0.0046053224,-0.13526143,0,1
759,"-0,00001","-0,00001","0,00003","-0,00004","-0,00003","-0,00002","-0,00003","-0,00002",0.27249121,-0.015148829,-0.11945084,0,1
760,"-0,00001","-0,00001","0,00003","-0,00004","-0,00003","-0,00002","-0,00003","-0,00002",0.18843063,-0.05876707,-0.17047417,0,1
761,"-0,00001",0,"0,00001","-0,00002","-0,00003","-0,00001",0,"-0,00001",0.26826709,-0.032576559,-0.101641,0,1
762,"-0,00001",0,"0,00001","-0,00002","-0,00003","-0,00001",0,"-0,00001",0.30712254,-0.038012774,-0.14582705,0,1
763,"-0,00001",0,"0,00001","-0,00002","-0,00003","-0,00001",0,"-0,00001",0.24244829,0.0062265257,-0.11724025,0,1
764,"-0,00001",0,"0,00001","-0,00002","-0,00003","-0,00001",0,"-0,00001",0.27162533,-0.0014597576,-0.11099228,0,1
765,"-0,00001",0,"0,00001","-0,00002","-0,00003","-0,00001",0,"-0,00001",0.28905111,-0.046141496,-0.10050281,0,1
766,"-0,00001",0,"0,00001","-0,00002","-0,00003","-0,00001",0,"-0,00001",0.28784425,-0.033054387,-0.11609568,0,1
767,"-0,00001",0,"0,00001","-0,00002","-0,00003","-0,00001",0,"-0,00001",0.28140199,0.0085590762,-0.090913576,0,1
768,"-0,00001",0,"0,00001","-0,00002","-0,00003","-0,00001",0,"-0,00001",0.28188088,0.013383487,-0.056461323,0,1
769,"-0,00001",0,"0,00001","-0,00002","-0,00003","-0,00001",0,"-0,00001",0.27321363,-0.029130979,-0.059425422,0,1
770,"-0,00001",0,"0,00001","-0,00002","-0,00003","-0,00001",0,"-0,00001",0.31520113,-0.060988516,-0.1284408,0,1
771,"-0,00001",0,"0,00001","-0,00002","-0,00003","-0,00001",0,"-0,00001",0.23387284,-0.020112427,-0.13875748,0,1
772,"-0,00001",0,"0,00001","-0,00002","-0,00003","-0,00001",0,"-0,00001",0.2954706,0.010657572,-0.092545952,0,1
773,"-0,00001",0,"0,00001","-0,00002","-0,00003","-0,00001",0,"-0,00001",0.36489804,-0.020107747,0.010560103,0,1
774,"-0,00001",0,"0,00001","-0,00002","-0,00003","-0,00001",0,"-0,00001",0.34847866,-0.02644719,-0.083240538,0,1
775,"-0,00001",0,"0,00001","-0,00002","-0,00003","-0,00001",0,"-0,00001",0.36589969,-0.031332139,-0.024079018,0,1
776,"-0,00001",0,"0,00001","-0,00002","-0,00003","-0,00001",0,"-0,00001",0.40022209,-0.017475771,-0.23692576,0,1
777,"-0,00001",0,"0,00001","-0,00002","-0,00003","-0,00001",0,"-0,00001",0.14197324,-0.00094917845,-0.074267482,0,1
778,"-0,00001",0,"0,00001","-0,00002","-0,00003","-0,00001",0,"-0,00001",0.24738527,-0.0099019473,-0.016418125,0,1
779,"-0,00001",0,"0,00001","-0,00002","-0,00003","-0,00001",0,"-0,00001",0.40989893,-0.049897307,-0.16143131,0,1
780,"-0,00001",0,"0,00001","-0,00002","-0,00003","-0,00001",0,"-0,00001",0.19583759,-0.010125046,-0.10942438,0,1
781,"-0,00001",0,"0,00001","-0,00002","-0,00003","-0,00001",0,"-0,00001",0.26206247,-0.040443387,-0.1547422,0,1
782,"-0,00001",0,"0,00001","-0,00002","-0,00003","-0,00001",0,"-0,00001",0.3381516,-0.021815945,-0.23677799,0,1
783,"0,00001","-0,00001","-0,00003",0,"0,00001","-0,00001","-0,00001",0,0.168419,-0.048308647,-0.17172716,0,1
784,"0,00001","-0,00001","-0,00003",0,"0,00001","-0,00001","-0,00001",0,0.27431063,0.020916672,-0.13277016,0,1
785,0,"0,00002",0,"-0,00001","-0,00003","-0,00001","-0,00002","-0,00001",0.17677724,-0.076101166,-0.15173068,0,1
786,"-0,00001","-0,00001","-0,00001","0,00002","-0,00002","-0,00001","-0,00002","-0,00002",0.35711293,-0.037107588,-0.029178204,0,1
789,"-0,00001","-0,00001","-0,00001","0,00002","-0,00002","-0,00001","-0,00002","-0,00002",0.33710384,0.014171853,-0.048200089,0,1
790,"-0,00001","-0,00001","-0,00001","0,00002","-0,00002","-0,00001","-0,00002","-0,00002",0.26991783,-0.0025826462,-0.10353957,0,1
791,"-0,00001","-0,00001","-0,00001","0,00002","-0,00002","-0,00001","-0,00002","-0,00002",0.21699256,-0.022619612,-0.16951171,0,1
792,"-0,00001","-0,00001","-0,00001","0,00002","-0,00002","-0,00001","-0,00002","-0,00002",0.20981027,0.022260093,-0.033581504,0,1
793,"-0,00001","-0,00001","-0,00001","0,00002","-0,00002","-0,00001","-0,00002","-0,00002",0.26933255,-0.0018076137,-0.12560498,0,1
794,"-0,00001","-0,00001","-0,00001","0,00002","-0,00002","-0,00001","-0,00002","-0,00002",0.23763448,0.0031786944,0.064080288,0,1
795,"-0,00001","-0,00001","-0,00001","0,00002","-0,00002","-0,00001","-0,00002","-0,00002",0.31530699,-0.058780147,-0.052554694,0,1
796,"-0,00001","-0,00001","-0,00001","0,00002","-0,00002","-0,00001","-0,00002","-0,00002",0.32082322,-0.034704678,-0.12628816,0,1
797,"-0,00001","-0,00001","-0,00001","0,00002","-0,00002","-0,00001","-0,00002","-0,00002",0.20254711,0.034169697,-0.10314094,0,1
798,"-0,00001","-0,00001","-0,00001","0,00002","-0,00002","-0,00001","-0,00002","-0,00002",0.2662233,-0.079818242,-0.22121129,0,1
799,"-0,00001","-0,00001","-0,00001","0,00002","-0,00002","-0,00001","-0,00002","-0,00002",0.27341427,-0.081179448,-0.14184135,0,1
800,"-0,00001","-0,00001","-0,00001","0,00002","-0,00002","-0,00001","-0,00002","-0,00002",0.1816777,-0.011138253,-0.10962099,0,1
801,"-0,00001","-0,00001","-0,00001","0,00002","-0,00002","-0,00001","-0,00002","-0,00002",0.25522432,0.021098662,-0.10925551,0,1
802,"-0,00001","-0,00001","-0,00001","0,00002","-0,00002","-0,00001","-0,00002","-0,00002",0.30273179,0.00061174207,-0.032746272,0,1
803,"-0,00001","-0,00001","-0,00001","0,00002","-0,00002","-0,00001","-0,00002","-0,00002",0.26716465,-0.01524637,-0.10410736,0,1
804,"-0,00001","-0,00001","-0,00001","0,00002","-0,00002","-0,00001","-0,00002","-0,00002",0.35102469,-0.066196954,-0.1886785,0,1
805,"-0,00001","-0,00001","-0,00001","0,00002","-0,00002","-0,00001","-0,00002","-0,00002",0.32179632,-0.053411418,-0.10450363,0,1
806,"-0,00002","-0,00001","-0,00005","-0,00002","-0,00001","-0,00002","-0,00001","-0,00002",0.20625869,0.031875904,0.0341101,0,1
807,"-0,00001","-0,00003","-0,00005","-0,00004","-0,00002",0,0,"-0,00004",0.41817187,-0.022827657,-0.057498696,0,1
808,"-0,00001","-0,00003","-0,00005","-0,00004","-0,00002",0,0,"-0,00004",0.31846146,-0.071460473,-0.14184731,0,1
809,"-0,00001","-0,00003","-0,00005","-0,00004","-0,00002",0,0,"-0,00004",0.21823699,-0.038003458,-0.15730285,0,1
810,"-0,00001","-0,00003","-0,00005","-0,00004","-0,00002",0,0,"-0,00004",0.31554245,-0.070483118,-0.24765379,0,1
811,"-0,00001","-0,00003","-0,00005","-0,00004","-0,00002",0,0,"-0,00004",0.27064646,-0.00015979184,-0.0074276256,0,1
812,"-0,00001","-0,00003","-0,00005","-0,00004","-0,00002",0,0,"-0,00004",0.21349459,0.052070374,0.061747382,0,1
813,"-0,00001","-0,00003","-0,00005","-0,00004","-0,00002",0,0,"-0,00004",0.24156215,-0.050591189,-0.11398359,0,1
814,"-0,00001","-0,00003","-0,00005","-0,00004","-0,00002",0,0,"-0,00004",0.24835171,-0.055910089,-0.21462987,0,1
815,"-0,00001","-0,00003","-0,00005","-0,00004","-0,00002",0,0,"-0,00004",0.16453897,-0.036406143,-0.16361975,0,1
816,"-0,00001","-0,00003","-0,00005","-0,00004","-0,00002",0,0,"-0,00004",0.27160132,-0.015072016,-0.094344308,0,1
817,"-0,00001","-0,00003","-0,00005","-0,00004","-0,00002",0,0,"-0,00004",0.33131531,0.010285326,-0.093165037,0,1
818,"-0,00001","-0,00003","-0,00005","-0,00004","-0,00002",0,0,"-0,00004",0.25539558,-0.012916275,-0.1116268,0,1
819,0,"-0,00001","0,00001",0,"0,00001","0,00001","-0,00002","-0,00001",0.23285205,-0.062350326,-0.087365487,0,1
820,0,"-0,00001","0,00001",0,"0,00001","0,00001","-0,00002","-0,00001",0.24507655,-0.01122626,-0.11220588,0,1
821,0,"-0,00001","0,00001",0,"0,00001","0,00001","-0,00002","-0,00001",0.25875116,-0.018484632,-0.12003269,0,1
822,0,"-0,00001","0,00001",0,"0,00001","0,00001","-0,00002","-0,00001",0.36449617,-0.085399483,0.096598135,0,1
823,0,"-0,00001","0,00001",0,"0,00001","0,00001","-0,00002","-0,00001",0.33735306,-0.089286658,-0.010581342,0,1
824,0,"-0,00001","0,00001",0,"0,00001","0,00001","-0,00002","-0,00001",0.27931922,-0.041908756,-0.14210407,0,1
825,0,"-0,00001","0,00001",0,"0,00001","0,00001","-0,00002","-0,00001",0.27942081,-0.018082486,-0.084934407,0,1
826,0,"-0,00001","-0,00005","-0,00005","-0,00003",0,"-0,00001","-0,00001",0.28407605,-0.020438275,-0.072194222,0,1
827,"-0,00002","0,00002","-0,00001","0,00001",0,"-0,00001",0,0,0.2752313,-0.011687583,-0.11221711,0,1
828,"-0,00002","0,00002","-0,00001","0,00001",0,"-0,00001",0,0,0.27803976,-0.0077785623,-0.10621163,0,1
829,"-0,00002","0,00002","-0,00001","0,00001",0,"-0,00001",0,0,0.28060378,-0.019659279,-0.1003254,0,1
830,"-0,00002","0,00002","-0,00001","0,00001",0,"-0,00001",0,0,0.27762148,-0.016452603,-0.099396771,0,1
831,"-0,00002","0,00002","-0,00001","0,00001",0,"-0,00001",0,0,0.28032203,-0.018248492,-0.094536421,0,1
832,"-0,00002","0,00002","-0,00001","0,00001",0,"-0,00001",0,0,0.27939393,-0.025130207,-0.10728754,0,1
833,"-0,00002","0,00002","-0,00001","0,00001",0,"-0,00001",0,0,0.31374035,-0.035970893,0.068003943,0,1
834,"-0,00002","0,00002","-0,00001","0,00001",0,"-0,00001",0,0,0.2837899,-0.0019238439,-0.11793031,0,1
835,"-0,00002","0,00002","-0,00001","0,00001",0,"-0,00001",0,0,0.27358289,-0.015195365,-0.11503398,0,1
836,"-0,00002","0,00002","-0,00001","0,00001",0,"-0,00001",0,0,0.27717388,-0.03414664,-0.10346489,0,1
839,"-0,00002","0,00002","-0,00001","0,00001",0,"-0,00001",0,0,0.27791609,-0.019429304,-0.1152614,0,1
840,"-0,00002","0,00002","-0,00001","0,00001",0,"-0,00001",0,0,0.27664935,-0.0064370458,-0.11486289,0,1
841,"-0,00002","0,00002","-0,00001","0,00001",0,"-0,00001",0,0,0.27448387,-0.0080933618,-0.12196509,0,1
842,"-0,00001","0,00003","0,00002","-0,00001","-0,00001","-0,00002",0,"-0,00001",0.27739146,-0.018093314,-0.11349559,0,1
843,"-0,00002","-0,00004","-0,00003","-0,00003","-0,00001","-0,00001","-0,00001",0,0.28022118,-0.021158281,-0.095739364,0,1
844,"-0,00002","-0,00004","-0,00003","-0,00003","-0,00001","-0,00001","-0,00001",0,0.27779122,-0.016819976,-0.1113431,0,1
845,"-0,00002","-0,00004","-0,00003","-0,00003","-0,00001","-0,00001","-0,00001",0,0.27420758,-0.014412147,-0.13402217,0,1
846,"-0,00002","-0,00004","-0,00003","-0,00003","-0,00001","-0,00001","-0,00001",0,0.27588764,-0.018328872,-0.11140591,0,1
847,"-0,00002","-0,00004","-0,00003","-0,00003","-0,00001","-0,00001","-0,00001",0,0.29722137,-0.023536578,0.021983318,0,1
848,"-0,00002","-0,00004","-0,00003","-0,00003","-0,00001","-0,00001","-0,00001",0,0.26525873,0.010995737,-0.17077519,0,1
849,"-0,00002","-0,00004","-0,00003","-0,00003","-0,00001","-0,00001","-0,00001",0,0.27942699,-0.023090831,-0.092375929,0,1
850,"-0,00002","-0,00004","-0,00003","-0,00003","-0,00001","-0,00001","-0,00001",0,0.16241983,-0.12283435,0.13780037,0,1
851,"-0,00002","-0,00004","-0,00003","-0,00003","-0,00001","-0,00001","-0,00001",0,0.22108157,-0.087332585,0.044139264,0,1
852,"-0,00002","-0,00004","-0,00003","-0,00003","-0,00001","-0,00001","-0,00001",0,0.044666967,-0.10083623,0.11258333,0,1
853,"-0,00002","-0,00004","-0,00003","-0,00003","-0,00001","-0,00001","-0,00001",0,-0.32564743,-0.19603125,0.49411433,0,1
854,"-0,00002","-0,00004","-0,00003","-0,00003","-0,00001","-0,00001","-0,00001",0,-0.07295394,-0.079915892,0.18315795,0,1
855,"-0,00002","-0,00004","-0,00003","-0,00003","-0,00001","-0,00001","-0,00001",0,0.2566248,-0.035374038,-0.13505382,0,1
856,"-0,00002","-0,00004","-0,00003","-0,00003","-0,00001","-0,00001","-0,00001",0,0.29927163,-0.030737168,-0.13201157,0,1
857,"-0,00002","-0,00004","-0,00003","-0,00003","-0,00001","-0,00001","-0,00001",0,0.27390768,-0.01385001,-0.1015642,0,1
858,"0,00001","0,00002","0,00001",0,0,"-0,00001","-0,00002","-0,00001",0.2470322,-0.018727508,-0.090166279,0,1
859,"0,00001","0,00002","0,00001",0,0,"-0,00001","-0,00002","-0,00001",0.19736477,-0.022468638,-0.088146826,0,1
860,"0,00001","0,00002","0,00001",0,0,"-0,00001","-0,00002","-0,00001",0.29099603,-0.025246927,-0.1019087,0,1
861,"0,00001","0,00002","0,00001",0,0,"-0,00001","-0,00002","-0,00001",0.28461038,-0.017208111,-0.10485314,0,1
862,"0,00001","0,00002","0,00001",0,0,"-0,00001","-0,00002","-0,00001",0.27716626,-0.025708376,-0.10635736,0,1
863,"0,00001","0,00002","0,00001",0,0,"-0,00001","-0,00002","-0,00001",0.27829848,-0.010742043,-0.11219723,0,1
864,"-0,00001","-0,00001","-0,00001","-0,00002","-0,00001","-0,00002",0,0,0.27792071,-0.011670313,-0.11046855,0,1
865,"-0,00001","-0,00001","-0,00001","-0,00002","-0,00001","-0,00002",0,0,0.27739362,-0.019583914,-0.10383902,0,1
866,"-0,00001","-0,00001","-0,00001","-0,00002","-0,00001","-0,00002",0,0,0.27816319,-0.017386956,-0.10379893,0,1
867,"-0,00001","-0,00001","-0,00001","-0,00002","-0,00001","-0,00002",0,0,0.28148965,-0.0081467673,-0.065483286,0,1
868,"-0,00001","-0,00001","-0,00001","-0,00002","-0,00001","-0,00002",0,0,0.28176224,-0.0043250776,-0.052241899,0,1
869,"-0,00001","-0,00001","-0,00001","-0,00002","-0,00001","-0,00002",0,0,0.27804236,-0.0091856562,-0.11969241,0,1
870,"-0,00001","-0,00001","-0,00001","-0,00002","-0,00001","-0,00002",0,0,0.27888651,-0.017720249,-0.12686225,0,1
871,"-0,00001","-0,00001","-0,00001","-0,00002","-0,00001","-0,00002",0,0,0.28028109,-0.023555422,-0.086982555,0,1
873,"-0,00001","-0,00001","-0,00001","-0,00002","-0,00001","-0,00002",0,0,0.33925793,-0.02615974,-0.1279793,0,1
874,"-0,00001","-0,00001","-0,00001","-0,00002","-0,00001","-0,00002",0,0,0.28133331,-0.02496591,-0.10498833,0,1
875,"-0,00001","-0,00001","-0,00001","-0,00002","-0,00001","-0,00002",0,0,0.27961772,-0.014162409,-0.10393079,0,1
876,"-0,00001","-0,00001","-0,00001","-0,00002","-0,00001","-0,00002",0,0,0.2882513,-0.019009273,-0.11287131,0,1
877,"-0,00001","-0,00001","-0,00001","-0,00002","-0,00001","-0,00002",0,0,0.29935795,-0.021811038,-0.11516415,0,1
878,"-0,00001","-0,00001","-0,00001","-0,00002","-0,00001","-0,00002",0,0,0.24983908,-0.013123449,-0.10150857,0,1
879,"-0,00006","-0,00006","-0,00007","-0,00007","-0,00005","-0,00002","-0,00001","-0,00002",0.20564028,-0.012136775,-0.10219495,0,1
880,"-0,00006","-0,00006","-0,00007","-0,00007","-0,00005","-0,00002","-0,00001","-0,00002",0.24104873,-0.012675181,-0.10541467,0,1
881,"-0,00006","-0,00006","-0,00007","-0,00007","-0,00005","-0,00002","-0,00001","-0,00002",0.28539083,-0.010814876,-0.10166667,0,1
882,"-0,00006","-0,00006","-0,00007","-0,00007","-0,00005","-0,00002","-0,00001","-0,00002",0.29246732,-0.018646949,-0.11105556,0,1
883,"-0,00006","-0,00006","-0,00007","-0,00007","-0,00005","-0,00002","-0,00001","-0,00002",0.27243467,-0.011182881,-0.10216556,0,1
884,"-0,00006","-0,00006","-0,00007","-0,00007","-0,00005","-0,00002","-0,00001","-0,00002",0.3846767,-0.021509576,-0.14402032,0,1
885,"-0,00006","-0,00006","-0,00007","-0,00007","-0,00005","-0,00002","-0,00001","-0,00002",0.28644831,-0.014319067,-0.1039875,0,1
886,"0,00001","-0,00001",0,"0,00002","0,00001",0,"-0,00002","-0,00002",0.27512144,-0.01554148,-0.10344198,0,1
889,"0,00001","-0,00001",0,"0,00002","0,00001",0,"-0,00002","-0,00002",0.3067897,-0.033199701,-0.12077504,0,1
890,"0,00001","-0,00001",0,"0,00002","0,00001",0,"-0,00002","-0,00002",0.25654019,-0.013108067,-0.11031587,0,1
891,"0,00001","-0,00001",0,"0,00002","0,00001",0,"-0,00002","-0,00002",0.17910207,0.032379388,-0.070068674,0,1
892,"0,00001","-0,00001",0,"0,00002","0,00001",0,"-0,00002","-0,00002",0.25972893,0.0033644719,-0.093101611,0,1
893,"0,00001","-0,00001",0,"0,00002","0,00001",0,"-0,00002","-0,00002",0.3108311,-0.024038853,-0.11586863,0,1
894,"0,00001","-0,00001",0,"0,00002","0,00001",0,"-0,00002","-0,00002",0.28298013,-0.010764187,-0.10303974,0,1
895,"0,00001","-0,00001",0,"0,00002","0,00001",0,"-0,00002","-0,00002",0.28915917,-0.016608005,-0.11028893,0,1
896,"0,00001","-0,00001",0,"0,00002","0,00001",0,"-0,00002","-0,00002",0.28480254,-0.021422748,-0.11427508,0,1
897,"0,00001","-0,00001",0,"0,00002","0,00001",0,"-0,00002","-0,00002",0.27151047,-0.01447835,-0.10299613,0,1
898,"0,00001","-0,00001",0,"0,00002","0,00001",0,"-0,00002","-0,00002",0.27925753,-0.0068731906,-0.099781898,0,1
899,"0,00001","-0,00001",0,"0,00002","0,00001",0,"-0,00002","-0,00002",0.32191391,-0.029134416,-0.1204133,0,1
900,"0,00001","-0,00001",0,"0,00002","0,00001",0,"-0,00002","-0,00002",0.31324192,-0.046158875,-0.122318,0,1
901,"0,00001","-0,00001",0,"0,00002","0,00001",0,"-0,00002","-0,00002",0.25039932,0.030045971,-0.12638898,0,1
902,"0,00001","-0,00001",0,"0,00002","0,00001",0,"-0,00002","-0,00002",0.30417525,-0.0096011047,-0.088270419,0,1
903,"0,00001","-0,00001",0,"0,00002","0,00001",0,"-0,00002","-0,00002",0.24075146,-0.021853578,-0.1606405,0,1
904,"0,00001","-0,00001",0,"0,00002","0,00001",0,"-0,00002","-0,00002",0.26651943,-0.038632969,-0.12759933,0,1
905,"0,00001","-0,00001",0,"0,00002","0,00001",0,"-0,00002","-0,00002",0.30640043,-0.013045168,-0.064767686,0,1
906,"0,00001","-0,00001",0,"0,00002","0,00001",0,"-0,00002","-0,00002",0.28649128,0.0016422842,-0.075570721,0,1
907,"0,00001","-0,00001",0,"0,00002","0,00001",0,"-0,00002","-0,00002",0.24501185,-0.011450234,-0.13545781,0,1
908,"0,00001","-0,00001",0,"0,00002","0,00001",0,"-0,00002","-0,00002",0.30753556,-0.019581385,-0.15474556,0,1
909,"0,00001","0,00001","0,00002","0,00001","-0,00001","-0,00001","-0,00002","-0,00002",0.2693514,-0.024254215,-0.10731318,0,1
910,"-0,00003",0,"0,00001","0,00001","-0,00001",0,0,"-0,00002",0.28546079,-0.025596366,-0.054349218,0,1
911,"-0,00003",0,"0,00001","0,00001","-0,00001",0,0,"-0,00002",0.24849182,-0.00055867285,-0.1184012,0,1
912,"-0,00003",0,"0,00001","0,00001","-0,00001",0,0,"-0,00002",0.24335703,-0.0063320701,-0.13561888,0,1
913,"-0,00003",0,"0,00001","0,00001","-0,00001",0,0,"-0,00002",0.33053958,-0.028434636,-0.13539586,0,1
914,"-0,00003",0,"0,00001","0,00001","-0,00001",0,0,"-0,00002",0.34438843,-0.020915319,-0.12529537,0,1
915,"-0,00003",0,"0,00001","0,00001","-0,00001",0,0,"-0,00002",0.29569664,-0.032375364,-0.11267342,0,1
916,"-0,00003",0,"0,00001","0,00001","-0,00001",0,0,"-0,00002",0.27025554,-0.038044828,-0.070724744,0,1
917,"-0,00003",0,"0,00001","0,00001","-0,00001",0,0,"-0,00002",0.26917577,-0.024575288,-0.11712221,0,1
918,"-0,00001","-0,00004","-0,00004",0,"-0,00002","-0,00002",0,0,0.28272604,-0.024326567,-0.11091706,0,1
919,"-0,00001","-0,00004","-0,00004",0,"-0,00002","-0,00002",0,0,0.30996924,-0.010554249,-0.12736726,0,1
920,"-0,00001","-0,00004","-0,00004",0,"-0,00002","-0,00002",0,0,0.22590698,-0.018603807,-0.084287177,0,1
921,"-0,00001","-0,00004","-0,00004",0,"-0,00002","-0,00002",0,0,0.30352057,-0.0047357446,-0.10569657,0,1
922,"-0,00001","-0,00004","-0,00004",0,"-0,00002","-0,00002",0,0,0.24491429,4.8173961e-05,-0.12832962,0,1
923,"-0,00001","-0,00004","-0,00004",0,"-0,00002","-0,00002",0,0,0.29234553,-0.0087530543,-0.12244358,0,1
924,"-0,00002",0,"0,00001","-0,00002","-0,00002","-0,00002","-0,00002","0,00001",0.27462142,-0.0089743494,-0.14335687,0,1
925,"-0,00002",0,"0,00001","-0,00002","-0,00002","-0,00002","-0,00002","0,00001",0.26097705,-0.012040857,-0.082773209,0,1
926,"-0,00002",0,"0,00001","-0,00002","-0,00002","-0,00002","-0,00002","0,00001",0.35358051,-0.0033227776,-0.08875709,0,1
927,"-0,00002",0,"0,00001","-0,00002","-0,00002","-0,00002","-0,00002","0,00001",0.38533814,-0.0055318416,-0.13276555,0,1
928,"-0,00002",0,"0,00001","-0,00002","-0,00002","-0,00002","-0,00002","0,00001",0.32900663,-0.035684372,-0.1496451,0,1
929,"-0,00002",0,"0,00001","-0,00002","-0,00002","-0,00002","-0,00002","0,00001",0.14146674,-0.044859438,-0.072571819,0,1
930,"-0,00002",0,"0,00001","-0,00002","-0,00002","-0,00002","-0,00002","0,00001",0.34072802,-0.0057923532,-0.067526305,0,1
931,"-0,00002",0,"0,00001","-0,00002","-0,00002","-0,00002","-0,00002","0,00001",0.3761998,0.013777668,-0.13982094,0,1
932,"-0,00002",0,"0,00001","-0,00002","-0,00002","-0,00002","-0,00002","0,00001",0.17462376,-0.023686933,-0.12785186,0,1
933,"-0,00002",0,"0,00001","-0,00002","-0,00002","-0,00002","-0,00002","0,00001",0.34197761,-8.5945927e-05,-0.11730269,0,1
934,"-0,00002",0,"0,00001","-0,00002","-0,00002","-0,00002","-0,00002","0,00001",0.37950054,-0.073392369,-0.098147006,0,1
935,"-0,00002",0,"0,00001","-0,00002","-0,00002","-0,00002","-0,00002","0,00001",0.2967205,-0.041996224,-0.11439253,0,1
936,"-0,00002",0,"0,00001","-0,00002","-0,00002","-0,00002","-0,00002","0,00001",0.18015059,-0.016905364,-0.19287465,0,1
939,"-0,00004","-0,00004","-0,00001","-0,00002","-0,00003","-0,00001","0,00001","-0,00001",0.30884789,0.014926818,-0.088643378,0,1
940,"-0,00004","-0,00004","-0,00001","-0,00002","-0,00003","-0,00001","0,00001","-0,00001",0.20413138,-0.017927107,0.020565566,0,1
941,"-0,00004","-0,00004","-0,00001","-0,00002","-0,00003","-0,00001","0,00001","-0,00001",0.43921224,-0.035820782,-0.12510641,0,1
942,"-0,00004","-0,00004","-0,00001","-0,00002","-0,00003","-0,00001","0,00001","-0,00001",0.32998193,-0.017727673,-0.13674598,0,1
943,"-0,00004","-0,00004","-0,00001","-0,00002","-0,00003","-0,00001","0,00001","-0,00001",0.23532165,0.1110848,-0.15482663,0,1
944,"-0,00004","-0,00004","-0,00001","-0,00002","-0,00003","-0,00001","0,00001","-0,00001",0.20371726,-0.020303332,-0.14118442,0,1
945,"-0,00004","-0,00004","-0,00001","-0,00002","-0,00003","-0,00001","0,00001","-0,00001",0.26284629,-0.055336435,-0.11689936,0,1
946,0,"-0,00001",0,"-0,00002",0,0,"0,00001",0,0.27582235,0.0014722134,-0.072655756,0,1
947,0,"-0,00001",0,"-0,00002",0,0,"0,00001",0,0.258736,-0.016602169,-0.040697297,0,1
948,0,"-0,00001",0,"-0,00002",0,0,"0,00001",0,0.26184945,-0.060782036,-0.20155891,0,1
949,0,"-0,00001",0,"-0,00002",0,0,"0,00001",0,0.27094704,0.013937018,-0.2038467,0,1
950,0,"-0,00001",0,"-0,00002",0,0,"0,00001",0,0.30938415,-0.029391843,-0.097838813,0,1
951,0,"-0,00001",0,"-0,00002",0,0,"0,00001",0,0.11450563,0.10067151,-0.19362286,0,1
952,0,"-0,00001",0,"-0,00002",0,0,"0,00001",0,0.17564039,-0.037076071,-0.081276601,0,1
953,0,"-0,00001",0,"-0,00002",0,0,"0,00001",0,0.2999149,-0.047177834,-0.11662321,0,1
954,0,"-0,00001",0,"-0,00002",0,0,"0,00001",0,0.21373692,-0.007768566,-0.13663331,0,1
955,0,"-0,00001",0,"-0,00002",0,0,"0,00001",0,0.22278073,-0.027419441,-0.082737511,0,1
956,0,"-0,00001",0,"-0,00002",0,0,"0,00001",0,0.37043267,-0.05049016,-0.14290996,0,1
957,0,"-0,00001",0,"-0,00002",0,0,"0,00001",0,0.41153032,-3.7276851e-05,-0.11937384,0,1
958,0,"-0,00001",0,"-0,00002",0,0,"0,00001",0,0.21338314,0.0095160756,-0.13296698,0,1
959,0,"-0,00001",0,"-0,00002",0,0,"0,00001",0,0.18948124,-0.0094320591,-0.062515275,0,1
960,0,"-0,00001",0,"-0,00002",0,0,"0,00001",0,0.32483554,-0.015624325,-0.095575758,0,1
961,0,"-0,00001",0,"-0,00002",0,0,"0,00001",0,0.26179698,-0.012007123,-0.13451223,0,1
962,0,0,"-0,00001",0,0,0,"-0,00002","-0,00003",0.23571343,-0.038080661,-0.094820179,0,1
963,"-0,00002","0,00001",0,"0,00001","-0,00001","-0,00002","-0,00002","-0,00002",0.32206355,-0.04318304,-0.15758067,0,1
964,"-0,00002","0,00001",0,"0,00001","-0,00001","-0,00002","-0,00002","-0,00002",0.31997802,0.0020163742,-0.15990506,0,1
965,"-0,00002","0,00001",0,"0,00001","-0,00001","-0,00002","-0,00002","-0,00002",0.28114428,-0.012604801,-0.078612997,0,1
966,"-0,00002","0,00001",0,"0,00001","-0,00001","-0,00002","-0,00002","-0,00002",0.42038362,-0.068855182,-0.060991981,0,1
967,"-0,00002","0,00001",0,"0,00001","-0,00001","-0,00002","-0,00002","-0,00002",0.38995098,-0.025774189,-0.14857607,0,1
968,"-0,00002","0,00001",0,"0,00001","-0,00001","-0,00002","-0,00002","-0,00002",0.16764246,-0.031919525,-0.10629065,0,1
969,"-0,00002","0,00001",0,"0,00001","-0,00001","-0,00002","-0,00002","-0,00002",0.39251918,-0.019620115,-0.10355548,0,1
970,"-0,00002","0,00001",0,"0,00001","-0,00001","-0,00002","-0,00002","-0,00002",0.39960813,-0.0018109545,-0.18255358,0,1
971,"-0,00002","0,00001",0,"0,00001","-0,00001","-0,00002","-0,00002","-0,00002",0.10024099,-0.030561538,-0.063009844,0,1
972,"-0,00002","0,00001",0,"0,00001","-0,00001","-0,00002","-0,00002","-0,00002",0.29396836,-0.026153867,-0.022616178,0,1
973,"-0,00002","0,00001",0,"0,00001","-0,00001","-0,00002","-0,00002","-0,00002",0.29510434,0.0089573062,-0.017539904,0,1
974,"-0,00002","0,00001",0,"0,00001","-0,00001","-0,00002","-0,00002","-0,00002",0.27961678,-0.016550147,-0.12025482,0,1
975,"-0,00002","0,00001",0,"0,00001","-0,00001","-0,00002","-0,00002","-0,00002",0.27698005,-0.015782283,-0.13357434,0,1
976,"-0,00002","0,00001",0,"0,00001","-0,00001","-0,00002","-0,00002","-0,00002",0.28025154,-0.029437138,-0.13104553,0,1
977,"-0,00002","0,00001",0,"0,00001","-0,00001","-0,00002","-0,00002","-0,00002",0.27716063,-0.020861762,-0.11582579,0,1
978,"-0,00002","0,00001",0,"0,00001","-0,00001","-0,00002","-0,00002","-0,00002",0.27753135,-0.0052639224,-0.087587111,0,1
979,"-0,00002","0,00001",0,"0,00001","-0,00001","-0,00002","-0,00002","-0,00002",0.27839931,-0.0093517988,-0.096919423,0,1
980,"-0,00002","0,00001",0,"0,00001","-0,00001","-0,00002","-0,00002","-0,00002",0.28001981,-0.014473408,-0.11091276,0,1
981,"-0,00002","0,00001",0,"0,00001","-0,00001","-0,00002","-0,00002","-0,00002",0.27667475,-0.019377865,-0.11108833,0,1
982,"-0,00002","0,00001",0,"0,00001","-0,00001","-0,00002","-0,00002","-0,00002",0.27398109,-0.028811062,-0.11362807,0,1
983,"-0,00002","0,00001",0,"0,00001","-0,00001","-0,00002","-0,00002","-0,00002",0.27573119,-0.026493692,-0.11020384,0,1
984,"-0,00002","0,00001",0,"0,00001","-0,00001","-0,00002","-0,00002","-0,00002",0.27561892,-0.017469228,-0.11103147,0,1
985,"-0,00002","0,00001",0,"0,00001","-0,00001","-0,00002","-0,00002","-0,00002",0.25444826,-0.036921783,-0.1659129,0,1
986,"-0,00001","-0,00003","-0,00004","-0,00003","0,00002","-0,00002","-0,00001",0,0.28065406,-0.027695828,-0.10972235,0,1
989,0,"0,00001",0,"0,00001","-0,00001",0,"-0,00002","-0,00001",0.2752244,-0.02098002,-0.111247,0,1
990,0,"0,00001",0,"0,00001","-0,00001",0,"-0,00002","-0,00001",0.27552605,-0.023365812,-0.1200707,0,1
991,0,"0,00001",0,"0,00001","-0,00001",0,"-0,00002","-0,00001",0.276917,-0.013229244,-0.11306847,0,1
992,0,"0,00001",0,"0,00001","-0,00001",0,"-0,00002","-0,00001",0.2746069,-0.017044877,-0.10519634,0,1
993,0,"0,00001",0,"0,00001","-0,00001",0,"-0,00002","-0,00001",0.2751033,-0.025604078,-0.1077228,0,1
994,0,"0,00001",0,"0,00001","-0,00001",0,"-0,00002","-0,00001",0.28062909,-0.016440568,-0.10834146,0,1
995,0,"0,00001",0,"0,00001","-0,00001",0,"-0,00002","-0,00001",0.2772489,-0.018150796,-0.10642187,0,1
996,0,"0,00001",0,"0,00001","-0,00001",0,"-0,00002","-0,00001",0.27929197,-0.019004718,-0.10827576,0,1
997,0,"0,00001",0,"0,00001","-0,00001",0,"-0,00002","-0,00001",0.27908529,-0.014527239,-0.050380306,0,1
998,0,"0,00001",0,"0,00001","-0,00001",0,"-0,00002","-0,00001",0.14319011,0.077229515,-0.072993051,0,1
999,0,"0,00001",0,"0,00001","-0,00001",0,"-0,00002","-0,00001",0.30420262,-0.061501476,-0.11699509,0,1
1000,0,"0,00001",0,"0,00001","-0,00001",0,"-0,00002","-0,00001",0.27701205,-0.0066920435,-0.10362614,0,1
1001,0,"0,00001",0,"0,00001","-0,00001",0,"-0,00002","-0,00001",0.27530064,-0.016504415,-0.103744,0,1
1002,0,"0,00001",0,"0,00001","-0,00001",0,"-0,00002","-0,00001",0.27758644,-0.018654374,-0.1095686,0,1
1003,0,"0,00001",0,"0,00001","-0,00001",0,"-0,00002","-0,00001",0.27781849,-0.016002335,-0.11056184,0,1
1004,0,"0,00001",0,"0,00001","-0,00001",0,"-0,00002","-0,00001",0.27849569,-0.01852877,-0.10897613,0,1
1005,0,"0,00001",0,"0,00001","-0,00001",0,"-0,00002","-0,00001",0.27591997,-0.017476065,-0.10676857,0,1
1006,0,"0,00001",0,"0,00001","-0,00001",0,"-0,00002","-0,00001",0.27853273,-0.016891034,-0.10731219,0,1
1007,0,"0,00001",0,"0,00001","-0,00001",0,"-0,00002","-0,00001",0.27880166,-0.017873899,-0.10568703,0,1
1008,"-0,00003","-0,00001","-0,00001","-0,00004","-0,00004","-0,00001","-0,00002","-0,00002",0.27629421,-0.017947208,-0.10649828,0,1
1009,"-0,00002","-0,00003","-0,00004","-0,00002","-0,00001","-0,00001",0,0,0.27518179,-0.017433879,-0.10786188,0,1
1010,"-0,00002","-0,00003","-0,00004","-0,00002","-0,00001","-0,00001",0,0,0.11851475,0.1523003,-0.13411158,0,1
1011,"-0,00002","-0,00003","-0,00004","-0,00002","-0,00001","-0,00001",0,0,0.28685267,-0.022969097,-0.092802664,0,1
1012,"-0,00002","-0,00003","-0,00004","-0,00002","-0,00001","-0,00001",0,0,0.29136758,-0.025835907,-0.098165669,0,1
1013,"-0,00002","-0,00003","-0,00004","-0,00002","-0,00001","-0,00001",0,0,0.26363105,-0.0077021605,-0.10335738,0,1
1014,"-0,00002","-0,00003","-0,00004","-0,00002","-0,00001","-0,00001",0,0,0.27428659,-0.013897649,-0.1110198,0,1
1015,"-0,00002","-0,00003","-0,00004","-0,00002","-0,00001","-0,00001",0,0,0.2789072,-0.018954501,-0.10774766,0,1
1016,"-0,00002","-0,00003","-0,00004","-0,00002","-0,00001","-0,00001",0,0,0.27718075,-0.016217595,-0.10990863,0,1
1019,"-0,00002","-0,00003","-0,00004","-0,00002","-0,00001","-0,00001",0,0,0.27709863,-0.015086621,-0.11238218,0,1
1020,"-0,00002","-0,00003","-0,00004","-0,00002","-0,00001","-0,00001",0,0,0.27595835,-0.014793885,-0.11056086,0,1
1021,0,"0,00001",0,"-0,00001","0,00001",0,"-0,00001","-0,00002",0.27696654,-0.016500492,-0.10640912,0,1
1022,0,"0,00001",0,"-0,00001","0,00001",0,"-0,00001","-0,00002",0.2773964,-0.01614897,-0.10634705,0,1
1023,0,"0,00001",0,"-0,00001","0,00001",0,"-0,00001","-0,00002",0.27921296,-0.018079464,-0.10649731,0,1
1024,0,"0,00001",0,"-0,00001","0,00001",0,"-0,00001","-0,00002",0.67188749,-0.014350544,-0.15990356,0,1
1025,0,"0,00001",0,"-0,00001","0,00001",0,"-0,00001","-0,00002",0.28259275,-0.012507555,-0.11008368,0,1
1026,0,"0,00001",0,"-0,00001","0,00001",0,"-0,00001","-0,00002",0.25427198,-0.01674764,-0.11032485,0,1
1027,0,"0,00001",0,"-0,00001","0,00001",0,"-0,00001","-0,00002",0.28568946,-0.016547679,-0.11169741,0,1
1028,0,"0,00001",0,"-0,00001","0,00001",0,"-0,00001","-0,00002",0.27745455,-0.017290036,-0.10755448,0,1
1029,"-0,00001","-0,00001",0,"-0,00002","-0,00002",0,"-0,00002","-0,00001",0.27635033,-0.016931518,-0.10787462,0,1
1030,"-0,00001","-0,00001",0,"-0,00002","-0,00002",0,"-0,00002","-0,00001",0.27577727,-0.016968301,-0.10413836,0,1
1031,"-0,00001","-0,00001",0,"-0,00002","-0,00002",0,"-0,00002","-0,00001",0.27762025,-0.017905423,-0.11163771,0,1
1032,"-0,00001","-0,00001",0,"-0,00002","-0,00002",0,"-0,00002","-0,00001",0.27321662,-0.017481753,-0.1127654,0,1
1033,"-0,00001","-0,00001",0,"-0,00002","-0,00002",0,"-0,00002","-0,00001",0.27635561,-0.016492129,-0.10889456,0,1
1034,"-0,00001","-0,00001",0,"-0,00002","-0,00002",0,"-0,00002","-0,00001",0.27438387,-0.016579267,-0.10714079,0,1
1035,"-0,00001","-0,00001",0,"-0,00002","-0,00002",0,"-0,00002","-0,00001",0.27485073,-0.017676967,-0.10500624,0,1
1036,"-0,00001","-0,00001",0,"-0,00002","-0,00002",0,"-0,00002","-0,00001",0.28159907,-0.016943396,-0.11124208,0,1
1039,0,"0,00001","-0,00001","-0,00001","-0,00003",0,0,"0,00001",0.27399448,-0.015680152,-0.10982988,0,1
1040,0,"0,00001","-0,00001","-0,00001","-0,00003",0,0,"0,00001",0.26692099,-0.01785611,-0.1027338,0,1
1041,0,"0,00001","-0,00001","-0,00001","-0,00003",0,0,"0,00001",0.07654368,-0.3628841,-0.57618401,0,1
1042,0,"0,00001","-0,00001","-0,00001","-0,00003",0,0,"0,00001",0.33294972,-0.071447245,-0.12362979,0,1
1043,0,"0,00001","-0,00001","-0,00001","-0,00003",0,0,"0,00001",0.24428227,-0.018323566,-0.10213624,0,1
1046,0,"0,00001","-0,00001","-0,00001","-0,00003",0,0,"0,00001",0.27051085,-0.011320588,-0.11137741,0,1
1047,"-0,00001","-0,00001","0,00001",0,"-0,00002",0,"-0,00001","-0,00001",0.28146232,-0.0096429007,-0.10707218,0,1
1048,"-0,00001","-0,00001","0,00001",0,"-0,00002",0,"-0,00001","-0,00001",0.28264319,0.0090473365,-0.09433627,0,1
1049,"-0,00001","-0,00001","0,00001",0,"-0,00002",0,"-0,00001","-0,00001",0.27792362,-0.026783183,-0.11368151,0,1
1050,"-0,00001","-0,00001","0,00001",0,"-0,00002",0,"-0,00001","-0,00001",0.27333634,-0.050414684,-0.12498645,0,1
1051,"-0,00001","-0,00001","0,00001",0,"-0,00002",0,"-0,00001","-0,00001",0.27810979,-0.026193028,-0.11006059,0,1
1052,"-0,00001","-0,00001","0,00001",0,"-0,00002",0,"-0,00001","-0,00001",0.28030833,-0.021917533,-0.1077496,0,1
1053,"-0,00001","-0,00001","0,00001",0,"-0,00002",0,"-0,00001","-0,00001",0.27940635,-0.019888725,-0.10831314,0,1
1054,"-0,00001","-0,00001","0,00001",0,"-0,00002",0,"-0,00001","-0,00001",0.28083685,-0.018221169,-0.11058539,0,1
1056,"-0,00001","-0,00001","0,00001",0,"-0,00002",0,"-0,00001","-0,00001",0.2793566,-0.013234671,-0.10664532,0,1
1057,"-0,00001","-0,00001","0,00001",0,"-0,00002",0,"-0,00001","-0,00001",0.27653064,-0.015712401,-0.10611083,0,1
1058,"-0,00001","-0,00001","0,00001",0,"-0,00002",0,"-0,00001","-0,00001",0.2771078,-0.025143618,-0.11169574,0,1
1059,0,"0,00001",0,"0,00001","-0,00001","-0,00002","0,00001","0,00001",0.2768767,-0.025864583,-0.11742826,0,1
1060,0,"0,00001",0,"0,00001","-0,00001","-0,00002","0,00001","0,00001",0.18446909,-0.03659856,-0.083108213,0,1
1061,0,"0,00001",0,"0,00001","-0,00001","-0,00002","0,00001","0,00001",0.31825459,0.012001973,-0.064686206,0,1
1062,0,"0,00001",0,"0,00001","-0,00001","-0,00002","0,00001","0,00001",0.33611406,-0.0080507135,-0.101073,0,1
1063,0,"0,00001",0,"0,00001","-0,00001","-0,00002","0,00001","0,00001",0.20092099,-0.012354759,-0.13551713,0,1
1064,0,"0,00001",0,"0,00001","-0,00001","-0,00002","0,00001","0,00001",0.25387811,-0.001195452,-0.14677261,0,1
1065,0,"0,00001",0,"0,00001","-0,00001","-0,00002","0,00001","0,00001",0.32011355,-0.043218451,-0.11618882,0,1
1066,"0,00001","-0,00001","-0,00001",0,"-0,00001","-0,00001",0,"-0,00001",0.26430263,-0.050615541,-0.089742835,0,1
1067,"0,00001","-0,00001","-0,00001",0,"-0,00001","-0,00001",0,"-0,00001",0.20803871,0.0095105126,-0.080870254,0,1
1068,"0,00001","-0,00001","-0,00001",0,"-0,00001","-0,00001",0,"-0,00001",0.34347813,-0.0077612858,-0.073490794,0,1
1069,"0,00001","-0,00001","-0,00001",0,"-0,00001","-0,00001",0,"-0,00001",0.34773085,-0.03215679,-0.098822499,0,1
1070,"0,00001","-0,00001","-0,00001",0,"-0,00001","-0,00001",0,"-0,00001",0.22006126,-0.015904825,-0.12673077,0,1
1071,"0,00001","-0,00001","-0,00001",0,"-0,00001","-0,00001",0,"-0,00001",0.24017201,-0.010125373,-0.13227579,0,1
1072,"0,00001","-0,00001","-0,00001",0,"-0,00001","-0,00001",0,"-0,00001",0.32605469,0.016412344,-0.12860583,0,1
1073,"0,00001","-0,00001","-0,00001",0,"-0,00001","-0,00001",0,"-0,00001",0.34246076,-0.041919428,-0.12290268,0,1
1074,"0,00001","-0,00001","-0,00001",0,"-0,00001","-0,00001",0,"-0,00001",0.19079141,-0.0078116399,-0.010446864,0,1
1075,"0,00001","-0,00001","-0,00001",0,"-0,00001","-0,00001",0,"-0,00001",0.307067,0.011397594,-0.068094381,0,1
1076,"0,00001","-0,00001","-0,00001",0,"-0,00001","-0,00001",0,"-0,00001",0.344479,-0.028307945,-0.10095811,0,1
1077,"0,00001","-0,00001","-0,00001",0,"-0,00001","-0,00001",0,"-0,00001",0.24093541,-0.058485872,-0.15071559,0,1
1078,"0,00001","-0,00001","-0,00001",0,"-0,00001","-0,00001",0,"-0,00001",0.24891975,-0.0062364041,-0.13932156,0,1
1079,"0,00001","-0,00001","-0,00001",0,"-0,00001","-0,00001",0,"-0,00001",0.31171796,-0.012070346,-0.11007469,0,1
1080,"0,00001","-0,00001","-0,00001",0,"-0,00001","-0,00001",0,"-0,00001",0.26924134,-0.039172089,-0.11484764,0,1
1081,"0,00001","-0,00001","-0,00001",0,"-0,00001","-0,00001",0,"-0,00001",0.20709585,-0.010484694,-0.074225792,0,1
1082,"0,00001","-0,00001","-0,00001",0,"-0,00001","-0,00001",0,"-0,00001",0.32304819,-0.021889426,-0.082578355,0,1
1083,0,"-0,00003","-0,00002",0,"-0,00001","-0,00003","-0,00001","-0,00002",0.29766092,-0.029555515,-0.11271367,0,1
1084,0,"-0,00003","-0,00002",0,"-0,00001","-0,00003","-0,00001","-0,00002",0.18399426,-0.0026509458,-0.099754289,0,1
1085,0,"-0,00003","-0,00002",0,"-0,00001","-0,00003","-0,00001","-0,00002",0.28955936,-0.015708354,-0.13269309,0,1
1086,0,"-0,00003","-0,00002",0,"-0,00001","-0,00003","-0,00001","-0,00002",0.37346243,-0.044616611,-0.14961341,0,1
1088,0,"-0,00003","-0,00002",0,"-0,00001","-0,00003","-0,00001","-0,00002",0.3862422,-0.034773216,-0.10150016,0,1
1089,"-0,00002","-0,00002","-0,00002","-0,00002","0,00001",0,"-0,00001","-0,00002",0.30034056,-0.056690073,-0.31781518,0,1
1090,"-0,00002","-0,00002","-0,00002","-0,00002","0,00001",0,"-0,00001","-0,00002",0.2006192,-0.030790558,-0.075162206,0,1
1091,"-0,00002","-0,00002","-0,00002","-0,00002","0,00001",0,"-0,00001","-0,00002",0.39363943,-0.066243538,-0.056163506,0,1
1092,"-0,00002","-0,00002","-0,00002","-0,00002","0,00001",0,"-0,00001","-0,00002",0.22131676,-0.038663497,-0.1542049,0,1
1093,"-0,00002","-0,00002","-0,00002","-0,00002","0,00001",0,"-0,00001","-0,00002",0.23419084,0.074661498,0.023292936,0,1
1094,"-0,00002","-0,00002","-0,00002","-0,00002","0,00001",0,"-0,00001","-0,00002",0.45672635,-0.035531494,-0.11676909,0,1
1095,"-0,00002","-0,00002","-0,00002","-0,00002","0,00001",0,"-0,00001","-0,00002",0.26492684,-0.024506751,-0.15405005,0,1
1096,"-0,00002","-0,00002","-0,00002","-0,00002","0,00001",0,"-0,00001","-0,00002",0.1360427,-0.032178887,-0.058822828,0,1
1097,"-0,00002","-0,00002","-0,00002","-0,00002","0,00001",0,"-0,00001","-0,00002",0.18493458,-0.018501763,-0.059464851,0,1
1098,0,"-0,00002","-0,00003",0,"0,00001","-0,00001","-0,00001","0,00001",0.40002864,-0.014952793,-0.12698908,0,1
1099,0,"-0,00002","-0,00003",0,"0,00001","-0,00001","-0,00001","0,00001",0.20770807,-0.012197788,-0.12667523,0,1
1100,0,"-0,00002","-0,00003",0,"0,00001","-0,00001","-0,00001","0,00001",0.29395748,-0.010952968,-0.032399827,0,1
1101,0,"-0,00002","-0,00003",0,"0,00001","-0,00001","-0,00001","0,00001",0.35653342,-0.0073060966,-0.17240611,0,1
1102,0,"-0,00002","-0,00003",0,"0,00001","-0,00001","-0,00001","0,00001",0.29944918,-0.049150433,-0.1843334,0,1
1103,0,"-0,00002","-0,00003",0,"0,00001","-0,00001","-0,00001","0,00001",0.12951378,-0.022880964,-0.11334682,0,1
1104,0,"-0,00002","-0,00003",0,"0,00001","-0,00001","-0,00001","0,00001",0.2823454,-0.025172168,-0.055333146,0,1
1105,0,"-0,00002","-0,00003",0,"0,00001","-0,00001","-0,00001","0,00001",0.36700247,-0.035996483,-0.059207657,0,1
1106,0,"-0,00002","-0,00003",0,"0,00001","-0,00001","-0,00001","0,00001",0.24312286,0.018245662,-0.16698873,0,1
1107,0,"-0,00002","-0,00003",0,"0,00001","-0,00001","-0,00001","0,00001",0.10569277,-0.039864377,0.0057445288,0,1
1108,0,"-0,00002","-0,00003",0,"0,00001","-0,00001","-0,00001","0,00001",0.27227759,-0.020258146,-0.1274931,0,1
1109,0,"-0,00002","-0,00003",0,"0,00001","-0,00001","-0,00001","0,00001",0.36785915,-0.016203191,-0.18120921,0,1
1110,0,"-0,00002","-0,00003",0,"0,00001","-0,00001","-0,00001","0,00001",0.28385378,-0.023798832,-0.11756282,0,1
1111,0,"-0,00002","-0,00003",0,"0,00001","-0,00001","-0,00001","0,00001",0.22861859,-0.0056989052,-0.041526421,0,1
